Procedure,List12,Running,List12.Cycle,List12.Sample,Slide2.DEVICE,Slide2.RT,Slide2.RESP,Slide4.RT,Slide4.RESP,immed3,respprev,prevalue,imstring,Slide1.DEVICE,Slide1.RT,Slide1.RESP,Slide5.RT,Slide5.RESP,immed5,immed,delaypd,timedays,List7,List7.Cycle,List7.Sample,List1,List1.Cycle,List1.Sample,roundnumber,TextDisplay11.DEVICE,List9,List9.Cycle,List9.Sample,List4,List4.Cycle,List4.Sample,List13,List13.Cycle,List13.Sample,List8,List8.Cycle,List8.Sample,List2,List2.Cycle,List2.Sample,List3,List3.Cycle,List3.Sample,List10,List10.Cycle,List10.Sample,List5,List5.Cycle,List5.Sample,List11,List11.Cycle,List11.Sample,List6,List6.Cycle,List6.Sample,Experiment,SessionDate,SessionTime,SessionStartDateTimeUtc,Subject,Session,Age,DataFile.Basename,RandomSeed,Group,Display.RefreshRate,Clock.Information,StudioVersion,RuntimeVersion,RuntimeVersionExpected,RuntimeCapabilities,ExperimentVersion,TextDisplay14.DEVICE,Slide3.DEVICE
Init4,1,List12,1,1,Keyboard,7240,1,0,,250,1,500,,,,,,,,,,,,,,,,,,,,,,,,,,,,,,,,,,,,,,,,,,,,,,,,,DelayDiscountingTitrated,10-23-2024,18:51:58,,1085,1,9,DelayDiscountingTitrated-1085-1,-1256571790,1,75.007,"<?xml version=""1.0""?>\n<Clock xmlns:dt=""urn:schemas-microsoft-com:datatypes""><Description dt:dt=""string"">E-Prime Primary Realtime Clock</Description><StartTime><Timestamp dt:dt=""int"">0</Timestamp><DateUtc dt:dt=""string"">2024-10-23T22:51:57Z</DateUtc></StartTime><FrequencyChanges><FrequencyChange><Frequency dt:dt=""r8"">10000000</Frequency><Timestamp dt:dt=""r8"">1124022205746</Timestamp><Current dt:dt=""r8"">0</Current><DateUtc dt:dt=""string"">2024-10-23T22:51:57Z</DateUtc></FrequencyChange></FrequencyChanges></Clock>\n",3.0.3.43,3.0.3.60,3.0.3.60,Full,1.0.0.8,Keyboard,Keyboard
Proc4,2,List12,1,2,,,,,,125,1,250,250,Keyboard,3286,1,0,,125,,,,,,,,,,,,,,,,,,,,,,,,,,,,,,,,,,,,,,,,,,DelayDiscountingTitrated,10-23-2024,18:51:58,,1085,1,9,DelayDiscountingTitrated-1085-1,-1256571790,1,75.007,"<?xml version=""1.0""?>\n<Clock xmlns:dt=""urn:schemas-microsoft-com:datatypes""><Description dt:dt=""string"">E-Prime Primary Realtime Clock</Description><StartTime><Timestamp dt:dt=""int"">0</Timestamp><DateUtc dt:dt=""string"">2024-10-23T22:51:57Z</DateUtc></StartTime><FrequencyChanges><FrequencyChange><Frequency dt:dt=""r8"">10000000</Frequency><Timestamp dt:dt=""r8"">1124022205746</Timestamp><Current dt:dt=""r8"">0</Current><DateUtc dt:dt=""string"">2024-10-23T22:51:57Z</DateUtc></FrequencyChange></FrequencyChanges></Clock>\n",3.0.3.43,3.0.3.60,3.0.3.60,Full,1.0.0.8,Keyboard,Keyboard
Proc4,3,List12,1,3,,,,,,63,1,125,125,Keyboard,3514,1,0,,62,,,,,,,,,,,,,,,,,,,,,,,,,,,,,,,,,,,,,,,,,,DelayDiscountingTitrated,10-23-2024,18:51:58,,1085,1,9,DelayDiscountingTitrated-1085-1,-1256571790,1,75.007,"<?xml version=""1.0""?>\n<Clock xmlns:dt=""urn:schemas-microsoft-com:datatypes""><Description dt:dt=""string"">E-Prime Primary Realtime Clock</Description><StartTime><Timestamp dt:dt=""int"">0</Timestamp><DateUtc dt:dt=""string"">2024-10-23T22:51:57Z</DateUtc></StartTime><FrequencyChanges><FrequencyChange><Frequency dt:dt=""r8"">10000000</Frequency><Timestamp dt:dt=""r8"">1124022205746</Timestamp><Current dt:dt=""r8"">0</Current><DateUtc dt:dt=""string"">2024-10-23T22:51:57Z</DateUtc></FrequencyChange></FrequencyChanges></Clock>\n",3.0.3.43,3.0.3.60,3.0.3.60,Full,1.0.0.8,Keyboard,Keyboard
Proc4,4,List12,1,4,,,,,,31,1,63,63,Keyboard,3392,1,0,,32,,,,,,,,,,,,,,,,,,,,,,,,,,,,,,,,,,,,,,,,,,DelayDiscountingTitrated,10-23-2024,18:51:58,,1085,1,9,DelayDiscountingTitrated-1085-1,-1256571790,1,75.007,"<?xml version=""1.0""?>\n<Clock xmlns:dt=""urn:schemas-microsoft-com:datatypes""><Description dt:dt=""string"">E-Prime Primary Realtime Clock</Description><StartTime><Timestamp dt:dt=""int"">0</Timestamp><DateUtc dt:dt=""string"">2024-10-23T22:51:57Z</DateUtc></StartTime><FrequencyChanges><FrequencyChange><Frequency dt:dt=""r8"">10000000</Frequency><Timestamp dt:dt=""r8"">1124022205746</Timestamp><Current dt:dt=""r8"">0</Current><DateUtc dt:dt=""string"">2024-10-23T22:51:57Z</DateUtc></FrequencyChange></FrequencyChanges></Clock>\n",3.0.3.43,3.0.3.60,3.0.3.60,Full,1.0.0.8,Keyboard,Keyboard
Proc4,5,List12,1,5,,,,,,47,3,31,31,Keyboard,4096,3,0,,16,,,,,,,,,,,,,,,,,,,,,,,,,,,,,,,,,,,,,,,,,,DelayDiscountingTitrated,10-23-2024,18:51:58,,1085,1,9,DelayDiscountingTitrated-1085-1,-1256571790,1,75.007,"<?xml version=""1.0""?>\n<Clock xmlns:dt=""urn:schemas-microsoft-com:datatypes""><Description dt:dt=""string"">E-Prime Primary Realtime Clock</Description><StartTime><Timestamp dt:dt=""int"">0</Timestamp><DateUtc dt:dt=""string"">2024-10-23T22:51:57Z</DateUtc></StartTime><FrequencyChanges><FrequencyChange><Frequency dt:dt=""r8"">10000000</Frequency><Timestamp dt:dt=""r8"">1124022205746</Timestamp><Current dt:dt=""r8"">0</Current><DateUtc dt:dt=""string"">2024-10-23T22:51:57Z</DateUtc></FrequencyChange></FrequencyChanges></Clock>\n",3.0.3.43,3.0.3.60,3.0.3.60,Full,1.0.0.8,Keyboard,Keyboard
Proc4,6,List12,1,6,,,,,,55,3,47,47,Keyboard,2109,3,0,,8,,,,,,,,,,,,,,,,,,,,,,,,,,,,,,,,,,,,,,,,,,DelayDiscountingTitrated,10-23-2024,18:51:58,,1085,1,9,DelayDiscountingTitrated-1085-1,-1256571790,1,75.007,"<?xml version=""1.0""?>\n<Clock xmlns:dt=""urn:schemas-microsoft-com:datatypes""><Description dt:dt=""string"">E-Prime Primary Realtime Clock</Description><StartTime><Timestamp dt:dt=""int"">0</Timestamp><DateUtc dt:dt=""string"">2024-10-23T22:51:57Z</DateUtc></StartTime><FrequencyChanges><FrequencyChange><Frequency dt:dt=""r8"">10000000</Frequency><Timestamp dt:dt=""r8"">1124022205746</Timestamp><Current dt:dt=""r8"">0</Current><DateUtc dt:dt=""string"">2024-10-23T22:51:57Z</DateUtc></FrequencyChange></FrequencyChanges></Clock>\n",3.0.3.43,3.0.3.60,3.0.3.60,Full,1.0.0.8,Keyboard,Keyboard
Proc4,7,List12,1,7,,,,,,51,1,55,55,Keyboard,2888,1,0,,4,,,,,,,,,,,,,,,,,,,,,,,,,,,,,,,,,,,,,,,,,,DelayDiscountingTitrated,10-23-2024,18:51:58,,1085,1,9,DelayDiscountingTitrated-1085-1,-1256571790,1,75.007,"<?xml version=""1.0""?>\n<Clock xmlns:dt=""urn:schemas-microsoft-com:datatypes""><Description dt:dt=""string"">E-Prime Primary Realtime Clock</Description><StartTime><Timestamp dt:dt=""int"">0</Timestamp><DateUtc dt:dt=""string"">2024-10-23T22:51:57Z</DateUtc></StartTime><FrequencyChanges><FrequencyChange><Frequency dt:dt=""r8"">10000000</Frequency><Timestamp dt:dt=""r8"">1124022205746</Timestamp><Current dt:dt=""r8"">0</Current><DateUtc dt:dt=""string"">2024-10-23T22:51:57Z</DateUtc></FrequencyChange></FrequencyChanges></Clock>\n",3.0.3.43,3.0.3.60,3.0.3.60,Full,1.0.0.8,Keyboard,Keyboard
Proc4,8,List12,1,8,,,,,,49,1,51,51,Keyboard,1286,1,0,,2,,,,,,,,,,,,,,,,,,,,,,,,,,,,,,,,,,,,,,,,,,DelayDiscountingTitrated,10-23-2024,18:51:58,,1085,1,9,DelayDiscountingTitrated-1085-1,-1256571790,1,75.007,"<?xml version=""1.0""?>\n<Clock xmlns:dt=""urn:schemas-microsoft-com:datatypes""><Description dt:dt=""string"">E-Prime Primary Realtime Clock</Description><StartTime><Timestamp dt:dt=""int"">0</Timestamp><DateUtc dt:dt=""string"">2024-10-23T22:51:57Z</DateUtc></StartTime><FrequencyChanges><FrequencyChange><Frequency dt:dt=""r8"">10000000</Frequency><Timestamp dt:dt=""r8"">1124022205746</Timestamp><Current dt:dt=""r8"">0</Current><DateUtc dt:dt=""string"">2024-10-23T22:51:57Z</DateUtc></FrequencyChange></FrequencyChanges></Clock>\n",3.0.3.43,3.0.3.60,3.0.3.60,Full,1.0.0.8,Keyboard,Keyboard
Proc4,9,List12,1,9,,,,,,48,1,49,49,Keyboard,2844,1,0,,1,,,,,,,,,,,,,,,,,,,,,,,,,,,,,,,,,,,,,,,,,,DelayDiscountingTitrated,10-23-2024,18:51:58,,1085,1,9,DelayDiscountingTitrated-1085-1,-1256571790,1,75.007,"<?xml version=""1.0""?>\n<Clock xmlns:dt=""urn:schemas-microsoft-com:datatypes""><Description dt:dt=""string"">E-Prime Primary Realtime Clock</Description><StartTime><Timestamp dt:dt=""int"">0</Timestamp><DateUtc dt:dt=""string"">2024-10-23T22:51:57Z</DateUtc></StartTime><FrequencyChanges><FrequencyChange><Frequency dt:dt=""r8"">10000000</Frequency><Timestamp dt:dt=""r8"">1124022205746</Timestamp><Current dt:dt=""r8"">0</Current><DateUtc dt:dt=""string"">2024-10-23T22:51:57Z</DateUtc></FrequencyChange></FrequencyChanges></Clock>\n",3.0.3.43,3.0.3.60,3.0.3.60,Full,1.0.0.8,Keyboard,Keyboard
Proc4,10,List12,1,10,,,,,,48,1,49,48,Keyboard,918,1,0,,,,,,,,,,,,,,,,,,,,,,,,,,,,,,,,,,,,,,,,,,,,DelayDiscountingTitrated,10-23-2024,18:51:58,,1085,1,9,DelayDiscountingTitrated-1085-1,-1256571790,1,75.007,"<?xml version=""1.0""?>\n<Clock xmlns:dt=""urn:schemas-microsoft-com:datatypes""><Description dt:dt=""string"">E-Prime Primary Realtime Clock</Description><StartTime><Timestamp dt:dt=""int"">0</Timestamp><DateUtc dt:dt=""string"">2024-10-23T22:51:57Z</DateUtc></StartTime><FrequencyChanges><FrequencyChange><Frequency dt:dt=""r8"">10000000</Frequency><Timestamp dt:dt=""r8"">1124022205746</Timestamp><Current dt:dt=""r8"">0</Current><DateUtc dt:dt=""string"">2024-10-23T22:51:57Z</DateUtc></FrequencyChange></FrequencyChanges></Clock>\n",3.0.3.43,3.0.3.60,3.0.3.60,Full,1.0.0.8,Keyboard,Keyboard
discount4,,List7,,,,,,,,,,,,,,,,,,500,5 years,1825,2,1,1,,,,,,,,,,,,,,,,,,,,,,,,,,,,,,,,,,,,DelayDiscountingTitrated,10-23-2024,18:51:58,,1085,1,9,DelayDiscountingTitrated-1085-1,-1256571790,1,75.007,"<?xml version=""1.0""?>\n<Clock xmlns:dt=""urn:schemas-microsoft-com:datatypes""><Description dt:dt=""string"">E-Prime Primary Realtime Clock</Description><StartTime><Timestamp dt:dt=""int"">0</Timestamp><DateUtc dt:dt=""string"">2024-10-23T22:51:57Z</DateUtc></StartTime><FrequencyChanges><FrequencyChange><Frequency dt:dt=""r8"">10000000</Frequency><Timestamp dt:dt=""r8"">1124022205746</Timestamp><Current dt:dt=""r8"">0</Current><DateUtc dt:dt=""string"">2024-10-23T22:51:57Z</DateUtc></FrequencyChange></FrequencyChanges></Clock>\n",3.0.3.43,3.0.3.60,3.0.3.60,Full,1.0.0.8,Keyboard,Keyboard
fiveyearproc,,List1,,,,,,,,,,,,,,,,,,,,,,,,5,1,1,1,Keyboard,,,,,,,,,,,,,,,,,,,,,,,,,,,,,,,DelayDiscountingTitrated,10-23-2024,18:51:58,,1085,1,9,DelayDiscountingTitrated-1085-1,-1256571790,1,75.007,"<?xml version=""1.0""?>\n<Clock xmlns:dt=""urn:schemas-microsoft-com:datatypes""><Description dt:dt=""string"">E-Prime Primary Realtime Clock</Description><StartTime><Timestamp dt:dt=""int"">0</Timestamp><DateUtc dt:dt=""string"">2024-10-23T22:51:57Z</DateUtc></StartTime><FrequencyChanges><FrequencyChange><Frequency dt:dt=""r8"">10000000</Frequency><Timestamp dt:dt=""r8"">1124022205746</Timestamp><Current dt:dt=""r8"">0</Current><DateUtc dt:dt=""string"">2024-10-23T22:51:57Z</DateUtc></FrequencyChange></FrequencyChanges></Clock>\n",3.0.3.43,3.0.3.60,3.0.3.60,Full,1.0.0.8,Keyboard,Keyboard
Init1,,List9,,,Keyboard,3794,3,0,,750,3,500,,,,,,,,,,,,,,,,,,,1,1,1,,,,,,,,,,,,,,,,,,,,,,,,,,,,DelayDiscountingTitrated,10-23-2024,18:51:58,,1085,1,9,DelayDiscountingTitrated-1085-1,-1256571790,1,75.007,"<?xml version=""1.0""?>\n<Clock xmlns:dt=""urn:schemas-microsoft-com:datatypes""><Description dt:dt=""string"">E-Prime Primary Realtime Clock</Description><StartTime><Timestamp dt:dt=""int"">0</Timestamp><DateUtc dt:dt=""string"">2024-10-23T22:51:57Z</DateUtc></StartTime><FrequencyChanges><FrequencyChange><Frequency dt:dt=""r8"">10000000</Frequency><Timestamp dt:dt=""r8"">1124022205746</Timestamp><Current dt:dt=""r8"">0</Current><DateUtc dt:dt=""string"">2024-10-23T22:51:57Z</DateUtc></FrequencyChange></FrequencyChanges></Clock>\n",3.0.3.43,3.0.3.60,3.0.3.60,Full,1.0.0.8,Keyboard,Keyboard
Proc1,,List9,,,,,,,,875,3,750,750,Keyboard,3219,3,0,,125,,,,,,,,,,,,2,1,2,,,,,,,,,,,,,,,,,,,,,,,,,,,,DelayDiscountingTitrated,10-23-2024,18:51:58,,1085,1,9,DelayDiscountingTitrated-1085-1,-1256571790,1,75.007,"<?xml version=""1.0""?>\n<Clock xmlns:dt=""urn:schemas-microsoft-com:datatypes""><Description dt:dt=""string"">E-Prime Primary Realtime Clock</Description><StartTime><Timestamp dt:dt=""int"">0</Timestamp><DateUtc dt:dt=""string"">2024-10-23T22:51:57Z</DateUtc></StartTime><FrequencyChanges><FrequencyChange><Frequency dt:dt=""r8"">10000000</Frequency><Timestamp dt:dt=""r8"">1124022205746</Timestamp><Current dt:dt=""r8"">0</Current><DateUtc dt:dt=""string"">2024-10-23T22:51:57Z</DateUtc></FrequencyChange></FrequencyChanges></Clock>\n",3.0.3.43,3.0.3.60,3.0.3.60,Full,1.0.0.8,Keyboard,Keyboard
Proc1,,List9,,,,,,,,813,1,875,875,Keyboard,1522,1,0,,62,,,,,,,,,,,,3,1,3,,,,,,,,,,,,,,,,,,,,,,,,,,,,DelayDiscountingTitrated,10-23-2024,18:51:58,,1085,1,9,DelayDiscountingTitrated-1085-1,-1256571790,1,75.007,"<?xml version=""1.0""?>\n<Clock xmlns:dt=""urn:schemas-microsoft-com:datatypes""><Description dt:dt=""string"">E-Prime Primary Realtime Clock</Description><StartTime><Timestamp dt:dt=""int"">0</Timestamp><DateUtc dt:dt=""string"">2024-10-23T22:51:57Z</DateUtc></StartTime><FrequencyChanges><FrequencyChange><Frequency dt:dt=""r8"">10000000</Frequency><Timestamp dt:dt=""r8"">1124022205746</Timestamp><Current dt:dt=""r8"">0</Current><DateUtc dt:dt=""string"">2024-10-23T22:51:57Z</DateUtc></FrequencyChange></FrequencyChanges></Clock>\n",3.0.3.43,3.0.3.60,3.0.3.60,Full,1.0.0.8,Keyboard,Keyboard
Proc1,,List9,,,,,,,,844,3,813,813,Keyboard,1046,3,0,,31,,,,,,,,,,,,4,1,4,,,,,,,,,,,,,,,,,,,,,,,,,,,,DelayDiscountingTitrated,10-23-2024,18:51:58,,1085,1,9,DelayDiscountingTitrated-1085-1,-1256571790,1,75.007,"<?xml version=""1.0""?>\n<Clock xmlns:dt=""urn:schemas-microsoft-com:datatypes""><Description dt:dt=""string"">E-Prime Primary Realtime Clock</Description><StartTime><Timestamp dt:dt=""int"">0</Timestamp><DateUtc dt:dt=""string"">2024-10-23T22:51:57Z</DateUtc></StartTime><FrequencyChanges><FrequencyChange><Frequency dt:dt=""r8"">10000000</Frequency><Timestamp dt:dt=""r8"">1124022205746</Timestamp><Current dt:dt=""r8"">0</Current><DateUtc dt:dt=""string"">2024-10-23T22:51:57Z</DateUtc></FrequencyChange></FrequencyChanges></Clock>\n",3.0.3.43,3.0.3.60,3.0.3.60,Full,1.0.0.8,Keyboard,Keyboard
Proc1,,List9,,,,,,,,860,3,844,844,Keyboard,898,3,0,,16,,,,,,,,,,,,5,1,5,,,,,,,,,,,,,,,,,,,,,,,,,,,,DelayDiscountingTitrated,10-23-2024,18:51:58,,1085,1,9,DelayDiscountingTitrated-1085-1,-1256571790,1,75.007,"<?xml version=""1.0""?>\n<Clock xmlns:dt=""urn:schemas-microsoft-com:datatypes""><Description dt:dt=""string"">E-Prime Primary Realtime Clock</Description><StartTime><Timestamp dt:dt=""int"">0</Timestamp><DateUtc dt:dt=""string"">2024-10-23T22:51:57Z</DateUtc></StartTime><FrequencyChanges><FrequencyChange><Frequency dt:dt=""r8"">10000000</Frequency><Timestamp dt:dt=""r8"">1124022205746</Timestamp><Current dt:dt=""r8"">0</Current><DateUtc dt:dt=""string"">2024-10-23T22:51:57Z</DateUtc></FrequencyChange></FrequencyChanges></Clock>\n",3.0.3.43,3.0.3.60,3.0.3.60,Full,1.0.0.8,Keyboard,Keyboard
Proc1,,List9,,,,,,,,868,3,860,860,Keyboard,508,3,0,,8,,,,,,,,,,,,6,1,6,,,,,,,,,,,,,,,,,,,,,,,,,,,,DelayDiscountingTitrated,10-23-2024,18:51:58,,1085,1,9,DelayDiscountingTitrated-1085-1,-1256571790,1,75.007,"<?xml version=""1.0""?>\n<Clock xmlns:dt=""urn:schemas-microsoft-com:datatypes""><Description dt:dt=""string"">E-Prime Primary Realtime Clock</Description><StartTime><Timestamp dt:dt=""int"">0</Timestamp><DateUtc dt:dt=""string"">2024-10-23T22:51:57Z</DateUtc></StartTime><FrequencyChanges><FrequencyChange><Frequency dt:dt=""r8"">10000000</Frequency><Timestamp dt:dt=""r8"">1124022205746</Timestamp><Current dt:dt=""r8"">0</Current><DateUtc dt:dt=""string"">2024-10-23T22:51:57Z</DateUtc></FrequencyChange></FrequencyChanges></Clock>\n",3.0.3.43,3.0.3.60,3.0.3.60,Full,1.0.0.8,Keyboard,Keyboard
Proc1,,List9,,,,,,,,872,3,868,868,Keyboard,743,3,0,,4,,,,,,,,,,,,7,1,7,,,,,,,,,,,,,,,,,,,,,,,,,,,,DelayDiscountingTitrated,10-23-2024,18:51:58,,1085,1,9,DelayDiscountingTitrated-1085-1,-1256571790,1,75.007,"<?xml version=""1.0""?>\n<Clock xmlns:dt=""urn:schemas-microsoft-com:datatypes""><Description dt:dt=""string"">E-Prime Primary Realtime Clock</Description><StartTime><Timestamp dt:dt=""int"">0</Timestamp><DateUtc dt:dt=""string"">2024-10-23T22:51:57Z</DateUtc></StartTime><FrequencyChanges><FrequencyChange><Frequency dt:dt=""r8"">10000000</Frequency><Timestamp dt:dt=""r8"">1124022205746</Timestamp><Current dt:dt=""r8"">0</Current><DateUtc dt:dt=""string"">2024-10-23T22:51:57Z</DateUtc></FrequencyChange></FrequencyChanges></Clock>\n",3.0.3.43,3.0.3.60,3.0.3.60,Full,1.0.0.8,Keyboard,Keyboard
Proc1,,List9,,,,,,,,870,1,872,872,Keyboard,1154,1,0,,2,,,,,,,,,,,,8,1,8,,,,,,,,,,,,,,,,,,,,,,,,,,,,DelayDiscountingTitrated,10-23-2024,18:51:58,,1085,1,9,DelayDiscountingTitrated-1085-1,-1256571790,1,75.007,"<?xml version=""1.0""?>\n<Clock xmlns:dt=""urn:schemas-microsoft-com:datatypes""><Description dt:dt=""string"">E-Prime Primary Realtime Clock</Description><StartTime><Timestamp dt:dt=""int"">0</Timestamp><DateUtc dt:dt=""string"">2024-10-23T22:51:57Z</DateUtc></StartTime><FrequencyChanges><FrequencyChange><Frequency dt:dt=""r8"">10000000</Frequency><Timestamp dt:dt=""r8"">1124022205746</Timestamp><Current dt:dt=""r8"">0</Current><DateUtc dt:dt=""string"">2024-10-23T22:51:57Z</DateUtc></FrequencyChange></FrequencyChanges></Clock>\n",3.0.3.43,3.0.3.60,3.0.3.60,Full,1.0.0.8,Keyboard,Keyboard
Proc1,,List9,,,,,,,,871,3,870,870,Keyboard,1588,3,0,,1,,,,,,,,,,,,9,1,9,,,,,,,,,,,,,,,,,,,,,,,,,,,,DelayDiscountingTitrated,10-23-2024,18:51:58,,1085,1,9,DelayDiscountingTitrated-1085-1,-1256571790,1,75.007,"<?xml version=""1.0""?>\n<Clock xmlns:dt=""urn:schemas-microsoft-com:datatypes""><Description dt:dt=""string"">E-Prime Primary Realtime Clock</Description><StartTime><Timestamp dt:dt=""int"">0</Timestamp><DateUtc dt:dt=""string"">2024-10-23T22:51:57Z</DateUtc></StartTime><FrequencyChanges><FrequencyChange><Frequency dt:dt=""r8"">10000000</Frequency><Timestamp dt:dt=""r8"">1124022205746</Timestamp><Current dt:dt=""r8"">0</Current><DateUtc dt:dt=""string"">2024-10-23T22:51:57Z</DateUtc></FrequencyChange></FrequencyChanges></Clock>\n",3.0.3.43,3.0.3.60,3.0.3.60,Full,1.0.0.8,Keyboard,Keyboard
Proc1,,List9,,,,,,,,871,1,870,871,Keyboard,534,1,0,,,,,,,,,,,,,,10,1,10,,,,,,,,,,,,,,,,,,,,,,,,,,,,DelayDiscountingTitrated,10-23-2024,18:51:58,,1085,1,9,DelayDiscountingTitrated-1085-1,-1256571790,1,75.007,"<?xml version=""1.0""?>\n<Clock xmlns:dt=""urn:schemas-microsoft-com:datatypes""><Description dt:dt=""string"">E-Prime Primary Realtime Clock</Description><StartTime><Timestamp dt:dt=""int"">0</Timestamp><DateUtc dt:dt=""string"">2024-10-23T22:51:57Z</DateUtc></StartTime><FrequencyChanges><FrequencyChange><Frequency dt:dt=""r8"">10000000</Frequency><Timestamp dt:dt=""r8"">1124022205746</Timestamp><Current dt:dt=""r8"">0</Current><DateUtc dt:dt=""string"">2024-10-23T22:51:57Z</DateUtc></FrequencyChange></FrequencyChanges></Clock>\n",3.0.3.43,3.0.3.60,3.0.3.60,Full,1.0.0.8,Keyboard,Keyboard
discount1,,List4,,,,,,,,,,,,,,,,,,500,1 month,30,,,,,,,,,,,,2,1,1,,,,,,,,,,,,,,,,,,,,,,,,,DelayDiscountingTitrated,10-23-2024,18:51:58,,1085,1,9,DelayDiscountingTitrated-1085-1,-1256571790,1,75.007,"<?xml version=""1.0""?>\n<Clock xmlns:dt=""urn:schemas-microsoft-com:datatypes""><Description dt:dt=""string"">E-Prime Primary Realtime Clock</Description><StartTime><Timestamp dt:dt=""int"">0</Timestamp><DateUtc dt:dt=""string"">2024-10-23T22:51:57Z</DateUtc></StartTime><FrequencyChanges><FrequencyChange><Frequency dt:dt=""r8"">10000000</Frequency><Timestamp dt:dt=""r8"">1124022205746</Timestamp><Current dt:dt=""r8"">0</Current><DateUtc dt:dt=""string"">2024-10-23T22:51:57Z</DateUtc></FrequencyChange></FrequencyChanges></Clock>\n",3.0.3.43,3.0.3.60,3.0.3.60,Full,1.0.0.8,Keyboard,Keyboard
onemthproc,,List1,,,,,,,,,,,,,,,,,,,,,,,,2,1,2,2,Keyboard,,,,,,,,,,,,,,,,,,,,,,,,,,,,,,,DelayDiscountingTitrated,10-23-2024,18:51:58,,1085,1,9,DelayDiscountingTitrated-1085-1,-1256571790,1,75.007,"<?xml version=""1.0""?>\n<Clock xmlns:dt=""urn:schemas-microsoft-com:datatypes""><Description dt:dt=""string"">E-Prime Primary Realtime Clock</Description><StartTime><Timestamp dt:dt=""int"">0</Timestamp><DateUtc dt:dt=""string"">2024-10-23T22:51:57Z</DateUtc></StartTime><FrequencyChanges><FrequencyChange><Frequency dt:dt=""r8"">10000000</Frequency><Timestamp dt:dt=""r8"">1124022205746</Timestamp><Current dt:dt=""r8"">0</Current><DateUtc dt:dt=""string"">2024-10-23T22:51:57Z</DateUtc></FrequencyChange></FrequencyChanges></Clock>\n",3.0.3.43,3.0.3.60,3.0.3.60,Full,1.0.0.8,Keyboard,Keyboard
Init5,,List13,,,Keyboard,2851,1,0,,400,1,800,,,,,,,,,,,,,,,,,,,,,,,,,1,1,1,,,,,,,,,,,,,,,,,,,,,,DelayDiscountingTitrated,10-23-2024,18:51:58,,1085,1,9,DelayDiscountingTitrated-1085-1,-1256571790,1,75.007,"<?xml version=""1.0""?>\n<Clock xmlns:dt=""urn:schemas-microsoft-com:datatypes""><Description dt:dt=""string"">E-Prime Primary Realtime Clock</Description><StartTime><Timestamp dt:dt=""int"">0</Timestamp><DateUtc dt:dt=""string"">2024-10-23T22:51:57Z</DateUtc></StartTime><FrequencyChanges><FrequencyChange><Frequency dt:dt=""r8"">10000000</Frequency><Timestamp dt:dt=""r8"">1124022205746</Timestamp><Current dt:dt=""r8"">0</Current><DateUtc dt:dt=""string"">2024-10-23T22:51:57Z</DateUtc></FrequencyChange></FrequencyChanges></Clock>\n",3.0.3.43,3.0.3.60,3.0.3.60,Full,1.0.0.8,Keyboard,Keyboard
Proc5,,List13,,,,,,,,200,1,400,400,Keyboard,967,1,0,,200,,,,,,,,,,,,,,,,,,2,1,2,,,,,,,,,,,,,,,,,,,,,,DelayDiscountingTitrated,10-23-2024,18:51:58,,1085,1,9,DelayDiscountingTitrated-1085-1,-1256571790,1,75.007,"<?xml version=""1.0""?>\n<Clock xmlns:dt=""urn:schemas-microsoft-com:datatypes""><Description dt:dt=""string"">E-Prime Primary Realtime Clock</Description><StartTime><Timestamp dt:dt=""int"">0</Timestamp><DateUtc dt:dt=""string"">2024-10-23T22:51:57Z</DateUtc></StartTime><FrequencyChanges><FrequencyChange><Frequency dt:dt=""r8"">10000000</Frequency><Timestamp dt:dt=""r8"">1124022205746</Timestamp><Current dt:dt=""r8"">0</Current><DateUtc dt:dt=""string"">2024-10-23T22:51:57Z</DateUtc></FrequencyChange></FrequencyChanges></Clock>\n",3.0.3.43,3.0.3.60,3.0.3.60,Full,1.0.0.8,Keyboard,Keyboard
Proc5,,List13,,,,,,,,100,1,200,200,Keyboard,628,1,0,,100,,,,,,,,,,,,,,,,,,3,1,3,,,,,,,,,,,,,,,,,,,,,,DelayDiscountingTitrated,10-23-2024,18:51:58,,1085,1,9,DelayDiscountingTitrated-1085-1,-1256571790,1,75.007,"<?xml version=""1.0""?>\n<Clock xmlns:dt=""urn:schemas-microsoft-com:datatypes""><Description dt:dt=""string"">E-Prime Primary Realtime Clock</Description><StartTime><Timestamp dt:dt=""int"">0</Timestamp><DateUtc dt:dt=""string"">2024-10-23T22:51:57Z</DateUtc></StartTime><FrequencyChanges><FrequencyChange><Frequency dt:dt=""r8"">10000000</Frequency><Timestamp dt:dt=""r8"">1124022205746</Timestamp><Current dt:dt=""r8"">0</Current><DateUtc dt:dt=""string"">2024-10-23T22:51:57Z</DateUtc></FrequencyChange></FrequencyChanges></Clock>\n",3.0.3.43,3.0.3.60,3.0.3.60,Full,1.0.0.8,Keyboard,Keyboard
Proc5,,List13,,,,,,,,50,1,100,100,Keyboard,401,1,0,,50,,,,,,,,,,,,,,,,,,4,1,4,,,,,,,,,,,,,,,,,,,,,,DelayDiscountingTitrated,10-23-2024,18:51:58,,1085,1,9,DelayDiscountingTitrated-1085-1,-1256571790,1,75.007,"<?xml version=""1.0""?>\n<Clock xmlns:dt=""urn:schemas-microsoft-com:datatypes""><Description dt:dt=""string"">E-Prime Primary Realtime Clock</Description><StartTime><Timestamp dt:dt=""int"">0</Timestamp><DateUtc dt:dt=""string"">2024-10-23T22:51:57Z</DateUtc></StartTime><FrequencyChanges><FrequencyChange><Frequency dt:dt=""r8"">10000000</Frequency><Timestamp dt:dt=""r8"">1124022205746</Timestamp><Current dt:dt=""r8"">0</Current><DateUtc dt:dt=""string"">2024-10-23T22:51:57Z</DateUtc></FrequencyChange></FrequencyChanges></Clock>\n",3.0.3.43,3.0.3.60,3.0.3.60,Full,1.0.0.8,Keyboard,Keyboard
Proc5,,List13,,,,,,,,25,1,50,50,Keyboard,593,1,0,,25,,,,,,,,,,,,,,,,,,5,1,5,,,,,,,,,,,,,,,,,,,,,,DelayDiscountingTitrated,10-23-2024,18:51:58,,1085,1,9,DelayDiscountingTitrated-1085-1,-1256571790,1,75.007,"<?xml version=""1.0""?>\n<Clock xmlns:dt=""urn:schemas-microsoft-com:datatypes""><Description dt:dt=""string"">E-Prime Primary Realtime Clock</Description><StartTime><Timestamp dt:dt=""int"">0</Timestamp><DateUtc dt:dt=""string"">2024-10-23T22:51:57Z</DateUtc></StartTime><FrequencyChanges><FrequencyChange><Frequency dt:dt=""r8"">10000000</Frequency><Timestamp dt:dt=""r8"">1124022205746</Timestamp><Current dt:dt=""r8"">0</Current><DateUtc dt:dt=""string"">2024-10-23T22:51:57Z</DateUtc></FrequencyChange></FrequencyChanges></Clock>\n",3.0.3.43,3.0.3.60,3.0.3.60,Full,1.0.0.8,Keyboard,Keyboard
Proc5,,List13,,,,,,,,13,1,25,25,Keyboard,446,1,0,,12,,,,,,,,,,,,,,,,,,6,1,6,,,,,,,,,,,,,,,,,,,,,,DelayDiscountingTitrated,10-23-2024,18:51:58,,1085,1,9,DelayDiscountingTitrated-1085-1,-1256571790,1,75.007,"<?xml version=""1.0""?>\n<Clock xmlns:dt=""urn:schemas-microsoft-com:datatypes""><Description dt:dt=""string"">E-Prime Primary Realtime Clock</Description><StartTime><Timestamp dt:dt=""int"">0</Timestamp><DateUtc dt:dt=""string"">2024-10-23T22:51:57Z</DateUtc></StartTime><FrequencyChanges><FrequencyChange><Frequency dt:dt=""r8"">10000000</Frequency><Timestamp dt:dt=""r8"">1124022205746</Timestamp><Current dt:dt=""r8"">0</Current><DateUtc dt:dt=""string"">2024-10-23T22:51:57Z</DateUtc></FrequencyChange></FrequencyChanges></Clock>\n",3.0.3.43,3.0.3.60,3.0.3.60,Full,1.0.0.8,Keyboard,Keyboard
Proc5,,List13,,,,,,,,7,1,13,13,Keyboard,626,1,0,,6,,,,,,,,,,,,,,,,,,7,1,7,,,,,,,,,,,,,,,,,,,,,,DelayDiscountingTitrated,10-23-2024,18:51:58,,1085,1,9,DelayDiscountingTitrated-1085-1,-1256571790,1,75.007,"<?xml version=""1.0""?>\n<Clock xmlns:dt=""urn:schemas-microsoft-com:datatypes""><Description dt:dt=""string"">E-Prime Primary Realtime Clock</Description><StartTime><Timestamp dt:dt=""int"">0</Timestamp><DateUtc dt:dt=""string"">2024-10-23T22:51:57Z</DateUtc></StartTime><FrequencyChanges><FrequencyChange><Frequency dt:dt=""r8"">10000000</Frequency><Timestamp dt:dt=""r8"">1124022205746</Timestamp><Current dt:dt=""r8"">0</Current><DateUtc dt:dt=""string"">2024-10-23T22:51:57Z</DateUtc></FrequencyChange></FrequencyChanges></Clock>\n",3.0.3.43,3.0.3.60,3.0.3.60,Full,1.0.0.8,Keyboard,Keyboard
Proc5,,List13,,,,,,,,3,1,7,7,Keyboard,418,1,0,,4,,,,,,,,,,,,,,,,,,8,1,8,,,,,,,,,,,,,,,,,,,,,,DelayDiscountingTitrated,10-23-2024,18:51:58,,1085,1,9,DelayDiscountingTitrated-1085-1,-1256571790,1,75.007,"<?xml version=""1.0""?>\n<Clock xmlns:dt=""urn:schemas-microsoft-com:datatypes""><Description dt:dt=""string"">E-Prime Primary Realtime Clock</Description><StartTime><Timestamp dt:dt=""int"">0</Timestamp><DateUtc dt:dt=""string"">2024-10-23T22:51:57Z</DateUtc></StartTime><FrequencyChanges><FrequencyChange><Frequency dt:dt=""r8"">10000000</Frequency><Timestamp dt:dt=""r8"">1124022205746</Timestamp><Current dt:dt=""r8"">0</Current><DateUtc dt:dt=""string"">2024-10-23T22:51:57Z</DateUtc></FrequencyChange></FrequencyChanges></Clock>\n",3.0.3.43,3.0.3.60,3.0.3.60,Full,1.0.0.8,Keyboard,Keyboard
Proc5,,List13,,,,,,,,1,1,3,3,Keyboard,645,1,0,,2,,,,,,,,,,,,,,,,,,9,1,9,,,,,,,,,,,,,,,,,,,,,,DelayDiscountingTitrated,10-23-2024,18:51:58,,1085,1,9,DelayDiscountingTitrated-1085-1,-1256571790,1,75.007,"<?xml version=""1.0""?>\n<Clock xmlns:dt=""urn:schemas-microsoft-com:datatypes""><Description dt:dt=""string"">E-Prime Primary Realtime Clock</Description><StartTime><Timestamp dt:dt=""int"">0</Timestamp><DateUtc dt:dt=""string"">2024-10-23T22:51:57Z</DateUtc></StartTime><FrequencyChanges><FrequencyChange><Frequency dt:dt=""r8"">10000000</Frequency><Timestamp dt:dt=""r8"">1124022205746</Timestamp><Current dt:dt=""r8"">0</Current><DateUtc dt:dt=""string"">2024-10-23T22:51:57Z</DateUtc></FrequencyChange></FrequencyChanges></Clock>\n",3.0.3.43,3.0.3.60,3.0.3.60,Full,1.0.0.8,Keyboard,Keyboard
Proc5,,List13,,,,,,,,1,1,,1,Keyboard,570,1,0,,,,,,,,,,,,,,,,,,,,10,1,10,,,,,,,,,,,,,,,,,,,,,,DelayDiscountingTitrated,10-23-2024,18:51:58,,1085,1,9,DelayDiscountingTitrated-1085-1,-1256571790,1,75.007,"<?xml version=""1.0""?>\n<Clock xmlns:dt=""urn:schemas-microsoft-com:datatypes""><Description dt:dt=""string"">E-Prime Primary Realtime Clock</Description><StartTime><Timestamp dt:dt=""int"">0</Timestamp><DateUtc dt:dt=""string"">2024-10-23T22:51:57Z</DateUtc></StartTime><FrequencyChanges><FrequencyChange><Frequency dt:dt=""r8"">10000000</Frequency><Timestamp dt:dt=""r8"">1124022205746</Timestamp><Current dt:dt=""r8"">0</Current><DateUtc dt:dt=""string"">2024-10-23T22:51:57Z</DateUtc></FrequencyChange></FrequencyChanges></Clock>\n",3.0.3.43,3.0.3.60,3.0.3.60,Full,1.0.0.8,Keyboard,Keyboard
discount5,,List8,,,,,,,,,,,,,,,,,,800,15 years,5475,,,,,,,,,,,,,,,,,,3,2,1,,,,,,,,,,,,,,,,,,,DelayDiscountingTitrated,10-23-2024,18:51:58,,1085,1,9,DelayDiscountingTitrated-1085-1,-1256571790,1,75.007,"<?xml version=""1.0""?>\n<Clock xmlns:dt=""urn:schemas-microsoft-com:datatypes""><Description dt:dt=""string"">E-Prime Primary Realtime Clock</Description><StartTime><Timestamp dt:dt=""int"">0</Timestamp><DateUtc dt:dt=""string"">2024-10-23T22:51:57Z</DateUtc></StartTime><FrequencyChanges><FrequencyChange><Frequency dt:dt=""r8"">10000000</Frequency><Timestamp dt:dt=""r8"">1124022205746</Timestamp><Current dt:dt=""r8"">0</Current><DateUtc dt:dt=""string"">2024-10-23T22:51:57Z</DateUtc></FrequencyChange></FrequencyChanges></Clock>\n",3.0.3.43,3.0.3.60,3.0.3.60,Full,1.0.0.8,Keyboard,Keyboard
fifteenyearproc,,List1,,,,,,,,,,,,,,,,,,,,,,,,6,1,3,3,Keyboard,,,,,,,,,,,,,,,,,,,,,,,,,,,,,,,DelayDiscountingTitrated,10-23-2024,18:51:58,,1085,1,9,DelayDiscountingTitrated-1085-1,-1256571790,1,75.007,"<?xml version=""1.0""?>\n<Clock xmlns:dt=""urn:schemas-microsoft-com:datatypes""><Description dt:dt=""string"">E-Prime Primary Realtime Clock</Description><StartTime><Timestamp dt:dt=""int"">0</Timestamp><DateUtc dt:dt=""string"">2024-10-23T22:51:57Z</DateUtc></StartTime><FrequencyChanges><FrequencyChange><Frequency dt:dt=""r8"">10000000</Frequency><Timestamp dt:dt=""r8"">1124022205746</Timestamp><Current dt:dt=""r8"">0</Current><DateUtc dt:dt=""string"">2024-10-23T22:51:57Z</DateUtc></FrequencyChange></FrequencyChanges></Clock>\n",3.0.3.43,3.0.3.60,3.0.3.60,Full,1.0.0.8,Keyboard,Keyboard
TrialProcInit,,List2,,,Keyboard,3417,3,0,,900,3,800,,,,,,,,,,,,,,,,,,,,,,,,,,,,,,,1,1,1,,,,,,,,,,,,,,,,DelayDiscountingTitrated,10-23-2024,18:51:58,,1085,1,9,DelayDiscountingTitrated-1085-1,-1256571790,1,75.007,"<?xml version=""1.0""?>\n<Clock xmlns:dt=""urn:schemas-microsoft-com:datatypes""><Description dt:dt=""string"">E-Prime Primary Realtime Clock</Description><StartTime><Timestamp dt:dt=""int"">0</Timestamp><DateUtc dt:dt=""string"">2024-10-23T22:51:57Z</DateUtc></StartTime><FrequencyChanges><FrequencyChange><Frequency dt:dt=""r8"">10000000</Frequency><Timestamp dt:dt=""r8"">1124022205746</Timestamp><Current dt:dt=""r8"">0</Current><DateUtc dt:dt=""string"">2024-10-23T22:51:57Z</DateUtc></FrequencyChange></FrequencyChanges></Clock>\n",3.0.3.43,3.0.3.60,3.0.3.60,Full,1.0.0.8,Keyboard,Keyboard
TrialProc,,List2,,,,,,,,950,3,900,900,Keyboard,2798,3,0,,50,,,,,,,,,,,,,,,,,,,,,,,,2,1,2,,,,,,,,,,,,,,,,DelayDiscountingTitrated,10-23-2024,18:51:58,,1085,1,9,DelayDiscountingTitrated-1085-1,-1256571790,1,75.007,"<?xml version=""1.0""?>\n<Clock xmlns:dt=""urn:schemas-microsoft-com:datatypes""><Description dt:dt=""string"">E-Prime Primary Realtime Clock</Description><StartTime><Timestamp dt:dt=""int"">0</Timestamp><DateUtc dt:dt=""string"">2024-10-23T22:51:57Z</DateUtc></StartTime><FrequencyChanges><FrequencyChange><Frequency dt:dt=""r8"">10000000</Frequency><Timestamp dt:dt=""r8"">1124022205746</Timestamp><Current dt:dt=""r8"">0</Current><DateUtc dt:dt=""string"">2024-10-23T22:51:57Z</DateUtc></FrequencyChange></FrequencyChanges></Clock>\n",3.0.3.43,3.0.3.60,3.0.3.60,Full,1.0.0.8,Keyboard,Keyboard
TrialProc,,List2,,,,,,,,975,3,950,950,Keyboard,1550,3,0,,25,,,,,,,,,,,,,,,,,,,,,,,,3,1,3,,,,,,,,,,,,,,,,DelayDiscountingTitrated,10-23-2024,18:51:58,,1085,1,9,DelayDiscountingTitrated-1085-1,-1256571790,1,75.007,"<?xml version=""1.0""?>\n<Clock xmlns:dt=""urn:schemas-microsoft-com:datatypes""><Description dt:dt=""string"">E-Prime Primary Realtime Clock</Description><StartTime><Timestamp dt:dt=""int"">0</Timestamp><DateUtc dt:dt=""string"">2024-10-23T22:51:57Z</DateUtc></StartTime><FrequencyChanges><FrequencyChange><Frequency dt:dt=""r8"">10000000</Frequency><Timestamp dt:dt=""r8"">1124022205746</Timestamp><Current dt:dt=""r8"">0</Current><DateUtc dt:dt=""string"">2024-10-23T22:51:57Z</DateUtc></FrequencyChange></FrequencyChanges></Clock>\n",3.0.3.43,3.0.3.60,3.0.3.60,Full,1.0.0.8,Keyboard,Keyboard
TrialProc,,List2,,,,,,,,963,1,975,975,Keyboard,472,1,0,,12,,,,,,,,,,,,,,,,,,,,,,,,4,1,4,,,,,,,,,,,,,,,,DelayDiscountingTitrated,10-23-2024,18:51:58,,1085,1,9,DelayDiscountingTitrated-1085-1,-1256571790,1,75.007,"<?xml version=""1.0""?>\n<Clock xmlns:dt=""urn:schemas-microsoft-com:datatypes""><Description dt:dt=""string"">E-Prime Primary Realtime Clock</Description><StartTime><Timestamp dt:dt=""int"">0</Timestamp><DateUtc dt:dt=""string"">2024-10-23T22:51:57Z</DateUtc></StartTime><FrequencyChanges><FrequencyChange><Frequency dt:dt=""r8"">10000000</Frequency><Timestamp dt:dt=""r8"">1124022205746</Timestamp><Current dt:dt=""r8"">0</Current><DateUtc dt:dt=""string"">2024-10-23T22:51:57Z</DateUtc></FrequencyChange></FrequencyChanges></Clock>\n",3.0.3.43,3.0.3.60,3.0.3.60,Full,1.0.0.8,Keyboard,Keyboard
TrialProc,,List2,,,,,,,,957,1,963,963,Keyboard,433,1,0,,6,,,,,,,,,,,,,,,,,,,,,,,,5,1,5,,,,,,,,,,,,,,,,DelayDiscountingTitrated,10-23-2024,18:51:58,,1085,1,9,DelayDiscountingTitrated-1085-1,-1256571790,1,75.007,"<?xml version=""1.0""?>\n<Clock xmlns:dt=""urn:schemas-microsoft-com:datatypes""><Description dt:dt=""string"">E-Prime Primary Realtime Clock</Description><StartTime><Timestamp dt:dt=""int"">0</Timestamp><DateUtc dt:dt=""string"">2024-10-23T22:51:57Z</DateUtc></StartTime><FrequencyChanges><FrequencyChange><Frequency dt:dt=""r8"">10000000</Frequency><Timestamp dt:dt=""r8"">1124022205746</Timestamp><Current dt:dt=""r8"">0</Current><DateUtc dt:dt=""string"">2024-10-23T22:51:57Z</DateUtc></FrequencyChange></FrequencyChanges></Clock>\n",3.0.3.43,3.0.3.60,3.0.3.60,Full,1.0.0.8,Keyboard,Keyboard
TrialProc,,List2,,,,,,,,954,1,957,957,Keyboard,243,1,0,,3,,,,,,,,,,,,,,,,,,,,,,,,6,1,6,,,,,,,,,,,,,,,,DelayDiscountingTitrated,10-23-2024,18:51:58,,1085,1,9,DelayDiscountingTitrated-1085-1,-1256571790,1,75.007,"<?xml version=""1.0""?>\n<Clock xmlns:dt=""urn:schemas-microsoft-com:datatypes""><Description dt:dt=""string"">E-Prime Primary Realtime Clock</Description><StartTime><Timestamp dt:dt=""int"">0</Timestamp><DateUtc dt:dt=""string"">2024-10-23T22:51:57Z</DateUtc></StartTime><FrequencyChanges><FrequencyChange><Frequency dt:dt=""r8"">10000000</Frequency><Timestamp dt:dt=""r8"">1124022205746</Timestamp><Current dt:dt=""r8"">0</Current><DateUtc dt:dt=""string"">2024-10-23T22:51:57Z</DateUtc></FrequencyChange></FrequencyChanges></Clock>\n",3.0.3.43,3.0.3.60,3.0.3.60,Full,1.0.0.8,Keyboard,Keyboard
TrialProc,,List2,,,,,,,,956,3,954,954,Keyboard,357,3,0,,2,,,,,,,,,,,,,,,,,,,,,,,,7,1,7,,,,,,,,,,,,,,,,DelayDiscountingTitrated,10-23-2024,18:51:58,,1085,1,9,DelayDiscountingTitrated-1085-1,-1256571790,1,75.007,"<?xml version=""1.0""?>\n<Clock xmlns:dt=""urn:schemas-microsoft-com:datatypes""><Description dt:dt=""string"">E-Prime Primary Realtime Clock</Description><StartTime><Timestamp dt:dt=""int"">0</Timestamp><DateUtc dt:dt=""string"">2024-10-23T22:51:57Z</DateUtc></StartTime><FrequencyChanges><FrequencyChange><Frequency dt:dt=""r8"">10000000</Frequency><Timestamp dt:dt=""r8"">1124022205746</Timestamp><Current dt:dt=""r8"">0</Current><DateUtc dt:dt=""string"">2024-10-23T22:51:57Z</DateUtc></FrequencyChange></FrequencyChanges></Clock>\n",3.0.3.43,3.0.3.60,3.0.3.60,Full,1.0.0.8,Keyboard,Keyboard
TrialProc,,List2,,,,,,,,955,1,956,956,Keyboard,456,1,0,,1,,,,,,,,,,,,,,,,,,,,,,,,8,1,8,,,,,,,,,,,,,,,,DelayDiscountingTitrated,10-23-2024,18:51:58,,1085,1,9,DelayDiscountingTitrated-1085-1,-1256571790,1,75.007,"<?xml version=""1.0""?>\n<Clock xmlns:dt=""urn:schemas-microsoft-com:datatypes""><Description dt:dt=""string"">E-Prime Primary Realtime Clock</Description><StartTime><Timestamp dt:dt=""int"">0</Timestamp><DateUtc dt:dt=""string"">2024-10-23T22:51:57Z</DateUtc></StartTime><FrequencyChanges><FrequencyChange><Frequency dt:dt=""r8"">10000000</Frequency><Timestamp dt:dt=""r8"">1124022205746</Timestamp><Current dt:dt=""r8"">0</Current><DateUtc dt:dt=""string"">2024-10-23T22:51:57Z</DateUtc></FrequencyChange></FrequencyChanges></Clock>\n",3.0.3.43,3.0.3.60,3.0.3.60,Full,1.0.0.8,Keyboard,Keyboard
TrialProc,,List2,,,,,,,,955,1,956,955,Keyboard,317,1,0,,,,,,,,,,,,,,,,,,,,,,,,,,9,1,9,,,,,,,,,,,,,,,,DelayDiscountingTitrated,10-23-2024,18:51:58,,1085,1,9,DelayDiscountingTitrated-1085-1,-1256571790,1,75.007,"<?xml version=""1.0""?>\n<Clock xmlns:dt=""urn:schemas-microsoft-com:datatypes""><Description dt:dt=""string"">E-Prime Primary Realtime Clock</Description><StartTime><Timestamp dt:dt=""int"">0</Timestamp><DateUtc dt:dt=""string"">2024-10-23T22:51:57Z</DateUtc></StartTime><FrequencyChanges><FrequencyChange><Frequency dt:dt=""r8"">10000000</Frequency><Timestamp dt:dt=""r8"">1124022205746</Timestamp><Current dt:dt=""r8"">0</Current><DateUtc dt:dt=""string"">2024-10-23T22:51:57Z</DateUtc></FrequencyChange></FrequencyChanges></Clock>\n",3.0.3.43,3.0.3.60,3.0.3.60,Full,1.0.0.8,Keyboard,Keyboard
discount,,List3,,,,,,,,,,,,,,,,,,800,1 week,7,,,,,,,,,,,,,,,,,,,,,,,,3,1,1,,,,,,,,,,,,,DelayDiscountingTitrated,10-23-2024,18:51:58,,1085,1,9,DelayDiscountingTitrated-1085-1,-1256571790,1,75.007,"<?xml version=""1.0""?>\n<Clock xmlns:dt=""urn:schemas-microsoft-com:datatypes""><Description dt:dt=""string"">E-Prime Primary Realtime Clock</Description><StartTime><Timestamp dt:dt=""int"">0</Timestamp><DateUtc dt:dt=""string"">2024-10-23T22:51:57Z</DateUtc></StartTime><FrequencyChanges><FrequencyChange><Frequency dt:dt=""r8"">10000000</Frequency><Timestamp dt:dt=""r8"">1124022205746</Timestamp><Current dt:dt=""r8"">0</Current><DateUtc dt:dt=""string"">2024-10-23T22:51:57Z</DateUtc></FrequencyChange></FrequencyChanges></Clock>\n",3.0.3.43,3.0.3.60,3.0.3.60,Full,1.0.0.8,Keyboard,Keyboard
onewkproc,,List1,,,,,,,,,,,,,,,,,,,,,,,,1,1,4,4,Keyboard,,,,,,,,,,,,,,,,,,,,,,,,,,,,,,,DelayDiscountingTitrated,10-23-2024,18:51:58,,1085,1,9,DelayDiscountingTitrated-1085-1,-1256571790,1,75.007,"<?xml version=""1.0""?>\n<Clock xmlns:dt=""urn:schemas-microsoft-com:datatypes""><Description dt:dt=""string"">E-Prime Primary Realtime Clock</Description><StartTime><Timestamp dt:dt=""int"">0</Timestamp><DateUtc dt:dt=""string"">2024-10-23T22:51:57Z</DateUtc></StartTime><FrequencyChanges><FrequencyChange><Frequency dt:dt=""r8"">10000000</Frequency><Timestamp dt:dt=""r8"">1124022205746</Timestamp><Current dt:dt=""r8"">0</Current><DateUtc dt:dt=""string"">2024-10-23T22:51:57Z</DateUtc></FrequencyChange></FrequencyChanges></Clock>\n",3.0.3.43,3.0.3.60,3.0.3.60,Full,1.0.0.8,Keyboard,Keyboard
Init2,,List10,,,Keyboard,2443,1,0,,250,1,500,,,,,,,,,,,,,,,,,,,,,,,,,,,,,,,,,,,,,1,1,1,,,,,,,,,,DelayDiscountingTitrated,10-23-2024,18:51:58,,1085,1,9,DelayDiscountingTitrated-1085-1,-1256571790,1,75.007,"<?xml version=""1.0""?>\n<Clock xmlns:dt=""urn:schemas-microsoft-com:datatypes""><Description dt:dt=""string"">E-Prime Primary Realtime Clock</Description><StartTime><Timestamp dt:dt=""int"">0</Timestamp><DateUtc dt:dt=""string"">2024-10-23T22:51:57Z</DateUtc></StartTime><FrequencyChanges><FrequencyChange><Frequency dt:dt=""r8"">10000000</Frequency><Timestamp dt:dt=""r8"">1124022205746</Timestamp><Current dt:dt=""r8"">0</Current><DateUtc dt:dt=""string"">2024-10-23T22:51:57Z</DateUtc></FrequencyChange></FrequencyChanges></Clock>\n",3.0.3.43,3.0.3.60,3.0.3.60,Full,1.0.0.8,Keyboard,Keyboard
Proc2,,List10,,,,,,,,125,1,250,250,Keyboard,1485,1,0,,125,,,,,,,,,,,,,,,,,,,,,,,,,,,,,,2,1,2,,,,,,,,,,DelayDiscountingTitrated,10-23-2024,18:51:58,,1085,1,9,DelayDiscountingTitrated-1085-1,-1256571790,1,75.007,"<?xml version=""1.0""?>\n<Clock xmlns:dt=""urn:schemas-microsoft-com:datatypes""><Description dt:dt=""string"">E-Prime Primary Realtime Clock</Description><StartTime><Timestamp dt:dt=""int"">0</Timestamp><DateUtc dt:dt=""string"">2024-10-23T22:51:57Z</DateUtc></StartTime><FrequencyChanges><FrequencyChange><Frequency dt:dt=""r8"">10000000</Frequency><Timestamp dt:dt=""r8"">1124022205746</Timestamp><Current dt:dt=""r8"">0</Current><DateUtc dt:dt=""string"">2024-10-23T22:51:57Z</DateUtc></FrequencyChange></FrequencyChanges></Clock>\n",3.0.3.43,3.0.3.60,3.0.3.60,Full,1.0.0.8,Keyboard,Keyboard
Proc2,,List10,,,,,,,,63,1,125,125,Keyboard,578,1,0,,62,,,,,,,,,,,,,,,,,,,,,,,,,,,,,,3,1,3,,,,,,,,,,DelayDiscountingTitrated,10-23-2024,18:51:58,,1085,1,9,DelayDiscountingTitrated-1085-1,-1256571790,1,75.007,"<?xml version=""1.0""?>\n<Clock xmlns:dt=""urn:schemas-microsoft-com:datatypes""><Description dt:dt=""string"">E-Prime Primary Realtime Clock</Description><StartTime><Timestamp dt:dt=""int"">0</Timestamp><DateUtc dt:dt=""string"">2024-10-23T22:51:57Z</DateUtc></StartTime><FrequencyChanges><FrequencyChange><Frequency dt:dt=""r8"">10000000</Frequency><Timestamp dt:dt=""r8"">1124022205746</Timestamp><Current dt:dt=""r8"">0</Current><DateUtc dt:dt=""string"">2024-10-23T22:51:57Z</DateUtc></FrequencyChange></FrequencyChanges></Clock>\n",3.0.3.43,3.0.3.60,3.0.3.60,Full,1.0.0.8,Keyboard,Keyboard
Proc2,,List10,,,,,,,,31,1,63,63,Keyboard,1227,1,0,,32,,,,,,,,,,,,,,,,,,,,,,,,,,,,,,4,1,4,,,,,,,,,,DelayDiscountingTitrated,10-23-2024,18:51:58,,1085,1,9,DelayDiscountingTitrated-1085-1,-1256571790,1,75.007,"<?xml version=""1.0""?>\n<Clock xmlns:dt=""urn:schemas-microsoft-com:datatypes""><Description dt:dt=""string"">E-Prime Primary Realtime Clock</Description><StartTime><Timestamp dt:dt=""int"">0</Timestamp><DateUtc dt:dt=""string"">2024-10-23T22:51:57Z</DateUtc></StartTime><FrequencyChanges><FrequencyChange><Frequency dt:dt=""r8"">10000000</Frequency><Timestamp dt:dt=""r8"">1124022205746</Timestamp><Current dt:dt=""r8"">0</Current><DateUtc dt:dt=""string"">2024-10-23T22:51:57Z</DateUtc></FrequencyChange></FrequencyChanges></Clock>\n",3.0.3.43,3.0.3.60,3.0.3.60,Full,1.0.0.8,Keyboard,Keyboard
Proc2,,List10,,,,,,,,15,1,31,31,Keyboard,1805,1,0,,16,,,,,,,,,,,,,,,,,,,,,,,,,,,,,,5,1,5,,,,,,,,,,DelayDiscountingTitrated,10-23-2024,18:51:58,,1085,1,9,DelayDiscountingTitrated-1085-1,-1256571790,1,75.007,"<?xml version=""1.0""?>\n<Clock xmlns:dt=""urn:schemas-microsoft-com:datatypes""><Description dt:dt=""string"">E-Prime Primary Realtime Clock</Description><StartTime><Timestamp dt:dt=""int"">0</Timestamp><DateUtc dt:dt=""string"">2024-10-23T22:51:57Z</DateUtc></StartTime><FrequencyChanges><FrequencyChange><Frequency dt:dt=""r8"">10000000</Frequency><Timestamp dt:dt=""r8"">1124022205746</Timestamp><Current dt:dt=""r8"">0</Current><DateUtc dt:dt=""string"">2024-10-23T22:51:57Z</DateUtc></FrequencyChange></FrequencyChanges></Clock>\n",3.0.3.43,3.0.3.60,3.0.3.60,Full,1.0.0.8,Keyboard,Keyboard
Proc2,,List10,,,,,,,,7,1,15,15,Keyboard,1603,1,0,,8,,,,,,,,,,,,,,,,,,,,,,,,,,,,,,6,1,6,,,,,,,,,,DelayDiscountingTitrated,10-23-2024,18:51:58,,1085,1,9,DelayDiscountingTitrated-1085-1,-1256571790,1,75.007,"<?xml version=""1.0""?>\n<Clock xmlns:dt=""urn:schemas-microsoft-com:datatypes""><Description dt:dt=""string"">E-Prime Primary Realtime Clock</Description><StartTime><Timestamp dt:dt=""int"">0</Timestamp><DateUtc dt:dt=""string"">2024-10-23T22:51:57Z</DateUtc></StartTime><FrequencyChanges><FrequencyChange><Frequency dt:dt=""r8"">10000000</Frequency><Timestamp dt:dt=""r8"">1124022205746</Timestamp><Current dt:dt=""r8"">0</Current><DateUtc dt:dt=""string"">2024-10-23T22:51:57Z</DateUtc></FrequencyChange></FrequencyChanges></Clock>\n",3.0.3.43,3.0.3.60,3.0.3.60,Full,1.0.0.8,Keyboard,Keyboard
Proc2,,List10,,,,,,,,3,1,7,7,Keyboard,1223,1,0,,4,,,,,,,,,,,,,,,,,,,,,,,,,,,,,,7,1,7,,,,,,,,,,DelayDiscountingTitrated,10-23-2024,18:51:58,,1085,1,9,DelayDiscountingTitrated-1085-1,-1256571790,1,75.007,"<?xml version=""1.0""?>\n<Clock xmlns:dt=""urn:schemas-microsoft-com:datatypes""><Description dt:dt=""string"">E-Prime Primary Realtime Clock</Description><StartTime><Timestamp dt:dt=""int"">0</Timestamp><DateUtc dt:dt=""string"">2024-10-23T22:51:57Z</DateUtc></StartTime><FrequencyChanges><FrequencyChange><Frequency dt:dt=""r8"">10000000</Frequency><Timestamp dt:dt=""r8"">1124022205746</Timestamp><Current dt:dt=""r8"">0</Current><DateUtc dt:dt=""string"">2024-10-23T22:51:57Z</DateUtc></FrequencyChange></FrequencyChanges></Clock>\n",3.0.3.43,3.0.3.60,3.0.3.60,Full,1.0.0.8,Keyboard,Keyboard
Proc2,,List10,,,,,,,,1,1,3,3,Keyboard,821,1,0,,2,,,,,,,,,,,,,,,,,,,,,,,,,,,,,,8,1,8,,,,,,,,,,DelayDiscountingTitrated,10-23-2024,18:51:58,,1085,1,9,DelayDiscountingTitrated-1085-1,-1256571790,1,75.007,"<?xml version=""1.0""?>\n<Clock xmlns:dt=""urn:schemas-microsoft-com:datatypes""><Description dt:dt=""string"">E-Prime Primary Realtime Clock</Description><StartTime><Timestamp dt:dt=""int"">0</Timestamp><DateUtc dt:dt=""string"">2024-10-23T22:51:57Z</DateUtc></StartTime><FrequencyChanges><FrequencyChange><Frequency dt:dt=""r8"">10000000</Frequency><Timestamp dt:dt=""r8"">1124022205746</Timestamp><Current dt:dt=""r8"">0</Current><DateUtc dt:dt=""string"">2024-10-23T22:51:57Z</DateUtc></FrequencyChange></FrequencyChanges></Clock>\n",3.0.3.43,3.0.3.60,3.0.3.60,Full,1.0.0.8,Keyboard,Keyboard
Proc2,,List10,,,,,,,,1,1,,1,Keyboard,797,1,0,,,,,,,,,,,,,,,,,,,,,,,,,,,,,,,,9,1,9,,,,,,,,,,DelayDiscountingTitrated,10-23-2024,18:51:58,,1085,1,9,DelayDiscountingTitrated-1085-1,-1256571790,1,75.007,"<?xml version=""1.0""?>\n<Clock xmlns:dt=""urn:schemas-microsoft-com:datatypes""><Description dt:dt=""string"">E-Prime Primary Realtime Clock</Description><StartTime><Timestamp dt:dt=""int"">0</Timestamp><DateUtc dt:dt=""string"">2024-10-23T22:51:57Z</DateUtc></StartTime><FrequencyChanges><FrequencyChange><Frequency dt:dt=""r8"">10000000</Frequency><Timestamp dt:dt=""r8"">1124022205746</Timestamp><Current dt:dt=""r8"">0</Current><DateUtc dt:dt=""string"">2024-10-23T22:51:57Z</DateUtc></FrequencyChange></FrequencyChanges></Clock>\n",3.0.3.43,3.0.3.60,3.0.3.60,Full,1.0.0.8,Keyboard,Keyboard
discount2,,List5,,,,,,,,,,,,,,,,,,500,6 month,180,,,,,,,,,,,,,,,,,,,,,,,,,,,,,,2,1,1,,,,,,,DelayDiscountingTitrated,10-23-2024,18:51:58,,1085,1,9,DelayDiscountingTitrated-1085-1,-1256571790,1,75.007,"<?xml version=""1.0""?>\n<Clock xmlns:dt=""urn:schemas-microsoft-com:datatypes""><Description dt:dt=""string"">E-Prime Primary Realtime Clock</Description><StartTime><Timestamp dt:dt=""int"">0</Timestamp><DateUtc dt:dt=""string"">2024-10-23T22:51:57Z</DateUtc></StartTime><FrequencyChanges><FrequencyChange><Frequency dt:dt=""r8"">10000000</Frequency><Timestamp dt:dt=""r8"">1124022205746</Timestamp><Current dt:dt=""r8"">0</Current><DateUtc dt:dt=""string"">2024-10-23T22:51:57Z</DateUtc></FrequencyChange></FrequencyChanges></Clock>\n",3.0.3.43,3.0.3.60,3.0.3.60,Full,1.0.0.8,Keyboard,Keyboard
sixmthproc,,List1,,,,,,,,,,,,,,,,,,,,,,,,3,1,5,5,Keyboard,,,,,,,,,,,,,,,,,,,,,,,,,,,,,,,DelayDiscountingTitrated,10-23-2024,18:51:58,,1085,1,9,DelayDiscountingTitrated-1085-1,-1256571790,1,75.007,"<?xml version=""1.0""?>\n<Clock xmlns:dt=""urn:schemas-microsoft-com:datatypes""><Description dt:dt=""string"">E-Prime Primary Realtime Clock</Description><StartTime><Timestamp dt:dt=""int"">0</Timestamp><DateUtc dt:dt=""string"">2024-10-23T22:51:57Z</DateUtc></StartTime><FrequencyChanges><FrequencyChange><Frequency dt:dt=""r8"">10000000</Frequency><Timestamp dt:dt=""r8"">1124022205746</Timestamp><Current dt:dt=""r8"">0</Current><DateUtc dt:dt=""string"">2024-10-23T22:51:57Z</DateUtc></FrequencyChange></FrequencyChanges></Clock>\n",3.0.3.43,3.0.3.60,3.0.3.60,Full,1.0.0.8,Keyboard,Keyboard
Init3,,List11,,,Keyboard,1602,1,0,,100,1,200,,,,,,,,,,,,,,,,,,,,,,,,,,,,,,,,,,,,,,,,,,,1,1,1,,,,DelayDiscountingTitrated,10-23-2024,18:51:58,,1085,1,9,DelayDiscountingTitrated-1085-1,-1256571790,1,75.007,"<?xml version=""1.0""?>\n<Clock xmlns:dt=""urn:schemas-microsoft-com:datatypes""><Description dt:dt=""string"">E-Prime Primary Realtime Clock</Description><StartTime><Timestamp dt:dt=""int"">0</Timestamp><DateUtc dt:dt=""string"">2024-10-23T22:51:57Z</DateUtc></StartTime><FrequencyChanges><FrequencyChange><Frequency dt:dt=""r8"">10000000</Frequency><Timestamp dt:dt=""r8"">1124022205746</Timestamp><Current dt:dt=""r8"">0</Current><DateUtc dt:dt=""string"">2024-10-23T22:51:57Z</DateUtc></FrequencyChange></FrequencyChanges></Clock>\n",3.0.3.43,3.0.3.60,3.0.3.60,Full,1.0.0.8,Keyboard,Keyboard
Proc3,,List11,,,,,,,,50,1,100,100,Keyboard,367,1,0,,50,,,,,,,,,,,,,,,,,,,,,,,,,,,,,,,,,,,,2,1,2,,,,DelayDiscountingTitrated,10-23-2024,18:51:58,,1085,1,9,DelayDiscountingTitrated-1085-1,-1256571790,1,75.007,"<?xml version=""1.0""?>\n<Clock xmlns:dt=""urn:schemas-microsoft-com:datatypes""><Description dt:dt=""string"">E-Prime Primary Realtime Clock</Description><StartTime><Timestamp dt:dt=""int"">0</Timestamp><DateUtc dt:dt=""string"">2024-10-23T22:51:57Z</DateUtc></StartTime><FrequencyChanges><FrequencyChange><Frequency dt:dt=""r8"">10000000</Frequency><Timestamp dt:dt=""r8"">1124022205746</Timestamp><Current dt:dt=""r8"">0</Current><DateUtc dt:dt=""string"">2024-10-23T22:51:57Z</DateUtc></FrequencyChange></FrequencyChanges></Clock>\n",3.0.3.43,3.0.3.60,3.0.3.60,Full,1.0.0.8,Keyboard,Keyboard
Proc3,,List11,,,,,,,,25,1,50,50,Keyboard,307,1,0,,25,,,,,,,,,,,,,,,,,,,,,,,,,,,,,,,,,,,,3,1,3,,,,DelayDiscountingTitrated,10-23-2024,18:51:58,,1085,1,9,DelayDiscountingTitrated-1085-1,-1256571790,1,75.007,"<?xml version=""1.0""?>\n<Clock xmlns:dt=""urn:schemas-microsoft-com:datatypes""><Description dt:dt=""string"">E-Prime Primary Realtime Clock</Description><StartTime><Timestamp dt:dt=""int"">0</Timestamp><DateUtc dt:dt=""string"">2024-10-23T22:51:57Z</DateUtc></StartTime><FrequencyChanges><FrequencyChange><Frequency dt:dt=""r8"">10000000</Frequency><Timestamp dt:dt=""r8"">1124022205746</Timestamp><Current dt:dt=""r8"">0</Current><DateUtc dt:dt=""string"">2024-10-23T22:51:57Z</DateUtc></FrequencyChange></FrequencyChanges></Clock>\n",3.0.3.43,3.0.3.60,3.0.3.60,Full,1.0.0.8,Keyboard,Keyboard
Proc3,,List11,,,,,,,,13,1,25,25,Keyboard,427,1,0,,12,,,,,,,,,,,,,,,,,,,,,,,,,,,,,,,,,,,,4,1,4,,,,DelayDiscountingTitrated,10-23-2024,18:51:58,,1085,1,9,DelayDiscountingTitrated-1085-1,-1256571790,1,75.007,"<?xml version=""1.0""?>\n<Clock xmlns:dt=""urn:schemas-microsoft-com:datatypes""><Description dt:dt=""string"">E-Prime Primary Realtime Clock</Description><StartTime><Timestamp dt:dt=""int"">0</Timestamp><DateUtc dt:dt=""string"">2024-10-23T22:51:57Z</DateUtc></StartTime><FrequencyChanges><FrequencyChange><Frequency dt:dt=""r8"">10000000</Frequency><Timestamp dt:dt=""r8"">1124022205746</Timestamp><Current dt:dt=""r8"">0</Current><DateUtc dt:dt=""string"">2024-10-23T22:51:57Z</DateUtc></FrequencyChange></FrequencyChanges></Clock>\n",3.0.3.43,3.0.3.60,3.0.3.60,Full,1.0.0.8,Keyboard,Keyboard
Proc3,,List11,,,,,,,,7,1,13,13,Keyboard,485,1,0,,6,,,,,,,,,,,,,,,,,,,,,,,,,,,,,,,,,,,,5,1,5,,,,DelayDiscountingTitrated,10-23-2024,18:51:58,,1085,1,9,DelayDiscountingTitrated-1085-1,-1256571790,1,75.007,"<?xml version=""1.0""?>\n<Clock xmlns:dt=""urn:schemas-microsoft-com:datatypes""><Description dt:dt=""string"">E-Prime Primary Realtime Clock</Description><StartTime><Timestamp dt:dt=""int"">0</Timestamp><DateUtc dt:dt=""string"">2024-10-23T22:51:57Z</DateUtc></StartTime><FrequencyChanges><FrequencyChange><Frequency dt:dt=""r8"">10000000</Frequency><Timestamp dt:dt=""r8"">1124022205746</Timestamp><Current dt:dt=""r8"">0</Current><DateUtc dt:dt=""string"">2024-10-23T22:51:57Z</DateUtc></FrequencyChange></FrequencyChanges></Clock>\n",3.0.3.43,3.0.3.60,3.0.3.60,Full,1.0.0.8,Keyboard,Keyboard
Proc3,,List11,,,,,,,,3,1,7,7,Keyboard,366,1,0,,4,,,,,,,,,,,,,,,,,,,,,,,,,,,,,,,,,,,,6,1,6,,,,DelayDiscountingTitrated,10-23-2024,18:51:58,,1085,1,9,DelayDiscountingTitrated-1085-1,-1256571790,1,75.007,"<?xml version=""1.0""?>\n<Clock xmlns:dt=""urn:schemas-microsoft-com:datatypes""><Description dt:dt=""string"">E-Prime Primary Realtime Clock</Description><StartTime><Timestamp dt:dt=""int"">0</Timestamp><DateUtc dt:dt=""string"">2024-10-23T22:51:57Z</DateUtc></StartTime><FrequencyChanges><FrequencyChange><Frequency dt:dt=""r8"">10000000</Frequency><Timestamp dt:dt=""r8"">1124022205746</Timestamp><Current dt:dt=""r8"">0</Current><DateUtc dt:dt=""string"">2024-10-23T22:51:57Z</DateUtc></FrequencyChange></FrequencyChanges></Clock>\n",3.0.3.43,3.0.3.60,3.0.3.60,Full,1.0.0.8,Keyboard,Keyboard
Proc3,,List11,,,,,,,,1,1,3,3,Keyboard,342,1,0,,2,,,,,,,,,,,,,,,,,,,,,,,,,,,,,,,,,,,,7,1,7,,,,DelayDiscountingTitrated,10-23-2024,18:51:58,,1085,1,9,DelayDiscountingTitrated-1085-1,-1256571790,1,75.007,"<?xml version=""1.0""?>\n<Clock xmlns:dt=""urn:schemas-microsoft-com:datatypes""><Description dt:dt=""string"">E-Prime Primary Realtime Clock</Description><StartTime><Timestamp dt:dt=""int"">0</Timestamp><DateUtc dt:dt=""string"">2024-10-23T22:51:57Z</DateUtc></StartTime><FrequencyChanges><FrequencyChange><Frequency dt:dt=""r8"">10000000</Frequency><Timestamp dt:dt=""r8"">1124022205746</Timestamp><Current dt:dt=""r8"">0</Current><DateUtc dt:dt=""string"">2024-10-23T22:51:57Z</DateUtc></FrequencyChange></FrequencyChanges></Clock>\n",3.0.3.43,3.0.3.60,3.0.3.60,Full,1.0.0.8,Keyboard,Keyboard
Proc3,,List11,,,,,,,,1,1,,1,Keyboard,240,1,0,,,,,,,,,,,,,,,,,,,,,,,,,,,,,,,,,,,,,,8,1,8,,,,DelayDiscountingTitrated,10-23-2024,18:51:58,,1085,1,9,DelayDiscountingTitrated-1085-1,-1256571790,1,75.007,"<?xml version=""1.0""?>\n<Clock xmlns:dt=""urn:schemas-microsoft-com:datatypes""><Description dt:dt=""string"">E-Prime Primary Realtime Clock</Description><StartTime><Timestamp dt:dt=""int"">0</Timestamp><DateUtc dt:dt=""string"">2024-10-23T22:51:57Z</DateUtc></StartTime><FrequencyChanges><FrequencyChange><Frequency dt:dt=""r8"">10000000</Frequency><Timestamp dt:dt=""r8"">1124022205746</Timestamp><Current dt:dt=""r8"">0</Current><DateUtc dt:dt=""string"">2024-10-23T22:51:57Z</DateUtc></FrequencyChange></FrequencyChanges></Clock>\n",3.0.3.43,3.0.3.60,3.0.3.60,Full,1.0.0.8,Keyboard,Keyboard
discount3,,List6,,,,,,,,,,,,,,,,,,200,1 year,365,,,,,,,,,,,,,,,,,,,,,,,,,,,,,,,,,,,,1,1,1,DelayDiscountingTitrated,10-23-2024,18:51:58,,1085,1,9,DelayDiscountingTitrated-1085-1,-1256571790,1,75.007,"<?xml version=""1.0""?>\n<Clock xmlns:dt=""urn:schemas-microsoft-com:datatypes""><Description dt:dt=""string"">E-Prime Primary Realtime Clock</Description><StartTime><Timestamp dt:dt=""int"">0</Timestamp><DateUtc dt:dt=""string"">2024-10-23T22:51:57Z</DateUtc></StartTime><FrequencyChanges><FrequencyChange><Frequency dt:dt=""r8"">10000000</Frequency><Timestamp dt:dt=""r8"">1124022205746</Timestamp><Current dt:dt=""r8"">0</Current><DateUtc dt:dt=""string"">2024-10-23T22:51:57Z</DateUtc></FrequencyChange></FrequencyChanges></Clock>\n",3.0.3.43,3.0.3.60,3.0.3.60,Full,1.0.0.8,Keyboard,Keyboard
oneyearproc,,List1,,,,,,,,,,,,,,,,,,,,,,,,4,1,6,6,Keyboard,,,,,,,,,,,,,,,,,,,,,,,,,,,,,,,DelayDiscountingTitrated,10-23-2024,18:51:58,,1085,1,9,DelayDiscountingTitrated-1085-1,-1256571790,1,75.007,"<?xml version=""1.0""?>\n<Clock xmlns:dt=""urn:schemas-microsoft-com:datatypes""><Description dt:dt=""string"">E-Prime Primary Realtime Clock</Description><StartTime><Timestamp dt:dt=""int"">0</Timestamp><DateUtc dt:dt=""string"">2024-10-23T22:51:57Z</DateUtc></StartTime><FrequencyChanges><FrequencyChange><Frequency dt:dt=""r8"">10000000</Frequency><Timestamp dt:dt=""r8"">1124022205746</Timestamp><Current dt:dt=""r8"">0</Current><DateUtc dt:dt=""string"">2024-10-23T22:51:57Z</DateUtc></FrequencyChange></FrequencyChanges></Clock>\n",3.0.3.43,3.0.3.60,3.0.3.60,Full,1.0.0.8,Keyboard,Keyboard
,,,,,,,,,,,,,,,,,,,,,,,,,,,,,,,,,,,,,,,,,,,,,,,,,,,,,,,,,,,,,DelayDiscountingTitrated,10-23-2024,18:51:58,,1085,1,9,DelayDiscountingTitrated-1085-1,-1256571790,1,75.007,"<?xml version=""1.0""?>\n<Clock xmlns:dt=""urn:schemas-microsoft-com:datatypes""><Description dt:dt=""string"">E-Prime Primary Realtime Clock</Description><StartTime><Timestamp dt:dt=""int"">0</Timestamp><DateUtc dt:dt=""string"">2024-10-23T22:51:57Z</DateUtc></StartTime><FrequencyChanges><FrequencyChange><Frequency dt:dt=""r8"">10000000</Frequency><Timestamp dt:dt=""r8"">1124022205746</Timestamp><Current dt:dt=""r8"">0</Current><DateUtc dt:dt=""string"">2024-10-23T22:51:57Z</DateUtc></FrequencyChange></FrequencyChanges></Clock>\n",3.0.3.43,3.0.3.60,3.0.3.60,Full,1.0.0.8,Keyboard,Keyboard
