Procedure,List13,Running,List13.Cycle,List13.Sample,Slide2.RT,Slide2.RESP,Slide4.RT,Slide4.RESP,immed3,respprev,prevalue,imstring,Slide1.RT,Slide1.RESP,Slide5.RT,Slide5.RESP,immed5,immed,delaypd,timedays,List8,List8.Cycle,List8.Sample,List1,List1.Cycle,List1.Sample,roundnumber,List9,List9.Cycle,List9.Sample,List4,List4.Cycle,List4.Sample,List11,List11.Cycle,List11.Sample,List6,List6.Cycle,List6.Sample,List12,List12.Cycle,List12.Sample,List7,List7.Cycle,List7.Sample,List2,List2.Cycle,List2.Sample,List3,List3.Cycle,List3.Sample,List10,List10.Cycle,List10.Sample,List5,List5.Cycle,List5.Sample,Experiment,SessionDate,SessionTime,SessionStartDateTimeUtc,Subject,Session,Age,DataFile.Basename,RandomSeed,Group,Display.RefreshRate,Clock.Information,StudioVersion,RuntimeVersion,RuntimeVersionExpected,RuntimeCapabilities,ExperimentVersion
Init5,1,List13,1,1,5761,1,0,,400,1,800,,,,,,,,,,,,,,,,,,,,,,,,,,,,,,,,,,,,,,,,,,,,,,,DelayDiscountingTitrated,12-15-2023,07:48:17,,3054,1,19,DelayDiscountingTitrated-3054-1,-1228538242,1,60.018,"<?xml version=""1.0""?>\n<Clock xmlns:dt=""urn:schemas-microsoft-com:datatypes""><Description dt:dt=""string"">E-Prime Primary Realtime Clock</Description><StartTime><Timestamp dt:dt=""int"">0</Timestamp><DateUtc dt:dt=""string"">2023-12-15T12:48:17Z</DateUtc></StartTime><FrequencyChanges><FrequencyChange><Frequency dt:dt=""r8"">10000000</Frequency><Timestamp dt:dt=""r8"">2837742858598</Timestamp><Current dt:dt=""r8"">0</Current><DateUtc dt:dt=""string"">2023-12-15T12:48:17Z</DateUtc></FrequencyChange></FrequencyChanges></Clock>\n",2.0.10.252,2.0.10.356,2.0.10.356,Professional,1.0.0.6
Proc5,2,List13,1,2,,,,,600,3,400,400,10259,3,0,,200,,,,,,,,,,,,,,,,,,,,,,,,,,,,,,,,,,,,,,,,,DelayDiscountingTitrated,12-15-2023,07:48:17,,3054,1,19,DelayDiscountingTitrated-3054-1,-1228538242,1,60.018,"<?xml version=""1.0""?>\n<Clock xmlns:dt=""urn:schemas-microsoft-com:datatypes""><Description dt:dt=""string"">E-Prime Primary Realtime Clock</Description><StartTime><Timestamp dt:dt=""int"">0</Timestamp><DateUtc dt:dt=""string"">2023-12-15T12:48:17Z</DateUtc></StartTime><FrequencyChanges><FrequencyChange><Frequency dt:dt=""r8"">10000000</Frequency><Timestamp dt:dt=""r8"">2837742858598</Timestamp><Current dt:dt=""r8"">0</Current><DateUtc dt:dt=""string"">2023-12-15T12:48:17Z</DateUtc></FrequencyChange></FrequencyChanges></Clock>\n",2.0.10.252,2.0.10.356,2.0.10.356,Professional,1.0.0.6
Proc5,3,List13,1,3,,,,,500,1,600,600,4209,1,0,,100,,,,,,,,,,,,,,,,,,,,,,,,,,,,,,,,,,,,,,,,,DelayDiscountingTitrated,12-15-2023,07:48:17,,3054,1,19,DelayDiscountingTitrated-3054-1,-1228538242,1,60.018,"<?xml version=""1.0""?>\n<Clock xmlns:dt=""urn:schemas-microsoft-com:datatypes""><Description dt:dt=""string"">E-Prime Primary Realtime Clock</Description><StartTime><Timestamp dt:dt=""int"">0</Timestamp><DateUtc dt:dt=""string"">2023-12-15T12:48:17Z</DateUtc></StartTime><FrequencyChanges><FrequencyChange><Frequency dt:dt=""r8"">10000000</Frequency><Timestamp dt:dt=""r8"">2837742858598</Timestamp><Current dt:dt=""r8"">0</Current><DateUtc dt:dt=""string"">2023-12-15T12:48:17Z</DateUtc></FrequencyChange></FrequencyChanges></Clock>\n",2.0.10.252,2.0.10.356,2.0.10.356,Professional,1.0.0.6
Proc5,4,List13,1,4,,,,,450,1,500,500,2249,1,0,,50,,,,,,,,,,,,,,,,,,,,,,,,,,,,,,,,,,,,,,,,,DelayDiscountingTitrated,12-15-2023,07:48:17,,3054,1,19,DelayDiscountingTitrated-3054-1,-1228538242,1,60.018,"<?xml version=""1.0""?>\n<Clock xmlns:dt=""urn:schemas-microsoft-com:datatypes""><Description dt:dt=""string"">E-Prime Primary Realtime Clock</Description><StartTime><Timestamp dt:dt=""int"">0</Timestamp><DateUtc dt:dt=""string"">2023-12-15T12:48:17Z</DateUtc></StartTime><FrequencyChanges><FrequencyChange><Frequency dt:dt=""r8"">10000000</Frequency><Timestamp dt:dt=""r8"">2837742858598</Timestamp><Current dt:dt=""r8"">0</Current><DateUtc dt:dt=""string"">2023-12-15T12:48:17Z</DateUtc></FrequencyChange></FrequencyChanges></Clock>\n",2.0.10.252,2.0.10.356,2.0.10.356,Professional,1.0.0.6
Proc5,5,List13,1,5,,,,,425,1,450,450,3854,1,0,,25,,,,,,,,,,,,,,,,,,,,,,,,,,,,,,,,,,,,,,,,,DelayDiscountingTitrated,12-15-2023,07:48:17,,3054,1,19,DelayDiscountingTitrated-3054-1,-1228538242,1,60.018,"<?xml version=""1.0""?>\n<Clock xmlns:dt=""urn:schemas-microsoft-com:datatypes""><Description dt:dt=""string"">E-Prime Primary Realtime Clock</Description><StartTime><Timestamp dt:dt=""int"">0</Timestamp><DateUtc dt:dt=""string"">2023-12-15T12:48:17Z</DateUtc></StartTime><FrequencyChanges><FrequencyChange><Frequency dt:dt=""r8"">10000000</Frequency><Timestamp dt:dt=""r8"">2837742858598</Timestamp><Current dt:dt=""r8"">0</Current><DateUtc dt:dt=""string"">2023-12-15T12:48:17Z</DateUtc></FrequencyChange></FrequencyChanges></Clock>\n",2.0.10.252,2.0.10.356,2.0.10.356,Professional,1.0.0.6
Proc5,6,List13,1,6,,,,,413,1,425,425,3507,1,0,,12,,,,,,,,,,,,,,,,,,,,,,,,,,,,,,,,,,,,,,,,,DelayDiscountingTitrated,12-15-2023,07:48:17,,3054,1,19,DelayDiscountingTitrated-3054-1,-1228538242,1,60.018,"<?xml version=""1.0""?>\n<Clock xmlns:dt=""urn:schemas-microsoft-com:datatypes""><Description dt:dt=""string"">E-Prime Primary Realtime Clock</Description><StartTime><Timestamp dt:dt=""int"">0</Timestamp><DateUtc dt:dt=""string"">2023-12-15T12:48:17Z</DateUtc></StartTime><FrequencyChanges><FrequencyChange><Frequency dt:dt=""r8"">10000000</Frequency><Timestamp dt:dt=""r8"">2837742858598</Timestamp><Current dt:dt=""r8"">0</Current><DateUtc dt:dt=""string"">2023-12-15T12:48:17Z</DateUtc></FrequencyChange></FrequencyChanges></Clock>\n",2.0.10.252,2.0.10.356,2.0.10.356,Professional,1.0.0.6
Proc5,7,List13,1,7,,,,,419,3,413,413,1951,3,0,,6,,,,,,,,,,,,,,,,,,,,,,,,,,,,,,,,,,,,,,,,,DelayDiscountingTitrated,12-15-2023,07:48:17,,3054,1,19,DelayDiscountingTitrated-3054-1,-1228538242,1,60.018,"<?xml version=""1.0""?>\n<Clock xmlns:dt=""urn:schemas-microsoft-com:datatypes""><Description dt:dt=""string"">E-Prime Primary Realtime Clock</Description><StartTime><Timestamp dt:dt=""int"">0</Timestamp><DateUtc dt:dt=""string"">2023-12-15T12:48:17Z</DateUtc></StartTime><FrequencyChanges><FrequencyChange><Frequency dt:dt=""r8"">10000000</Frequency><Timestamp dt:dt=""r8"">2837742858598</Timestamp><Current dt:dt=""r8"">0</Current><DateUtc dt:dt=""string"">2023-12-15T12:48:17Z</DateUtc></FrequencyChange></FrequencyChanges></Clock>\n",2.0.10.252,2.0.10.356,2.0.10.356,Professional,1.0.0.6
Proc5,8,List13,1,8,,,,,422,3,419,419,1599,3,0,,3,,,,,,,,,,,,,,,,,,,,,,,,,,,,,,,,,,,,,,,,,DelayDiscountingTitrated,12-15-2023,07:48:17,,3054,1,19,DelayDiscountingTitrated-3054-1,-1228538242,1,60.018,"<?xml version=""1.0""?>\n<Clock xmlns:dt=""urn:schemas-microsoft-com:datatypes""><Description dt:dt=""string"">E-Prime Primary Realtime Clock</Description><StartTime><Timestamp dt:dt=""int"">0</Timestamp><DateUtc dt:dt=""string"">2023-12-15T12:48:17Z</DateUtc></StartTime><FrequencyChanges><FrequencyChange><Frequency dt:dt=""r8"">10000000</Frequency><Timestamp dt:dt=""r8"">2837742858598</Timestamp><Current dt:dt=""r8"">0</Current><DateUtc dt:dt=""string"">2023-12-15T12:48:17Z</DateUtc></FrequencyChange></FrequencyChanges></Clock>\n",2.0.10.252,2.0.10.356,2.0.10.356,Professional,1.0.0.6
Proc5,9,List13,1,9,,,,,424,3,422,422,1134,3,0,,2,,,,,,,,,,,,,,,,,,,,,,,,,,,,,,,,,,,,,,,,,DelayDiscountingTitrated,12-15-2023,07:48:17,,3054,1,19,DelayDiscountingTitrated-3054-1,-1228538242,1,60.018,"<?xml version=""1.0""?>\n<Clock xmlns:dt=""urn:schemas-microsoft-com:datatypes""><Description dt:dt=""string"">E-Prime Primary Realtime Clock</Description><StartTime><Timestamp dt:dt=""int"">0</Timestamp><DateUtc dt:dt=""string"">2023-12-15T12:48:17Z</DateUtc></StartTime><FrequencyChanges><FrequencyChange><Frequency dt:dt=""r8"">10000000</Frequency><Timestamp dt:dt=""r8"">2837742858598</Timestamp><Current dt:dt=""r8"">0</Current><DateUtc dt:dt=""string"">2023-12-15T12:48:17Z</DateUtc></FrequencyChange></FrequencyChanges></Clock>\n",2.0.10.252,2.0.10.356,2.0.10.356,Professional,1.0.0.6
Proc5,10,List13,1,10,,,,,425,3,424,424,952,3,0,,1,,,,,,,,,,,,,,,,,,,,,,,,,,,,,,,,,,,,,,,,,DelayDiscountingTitrated,12-15-2023,07:48:17,,3054,1,19,DelayDiscountingTitrated-3054-1,-1228538242,1,60.018,"<?xml version=""1.0""?>\n<Clock xmlns:dt=""urn:schemas-microsoft-com:datatypes""><Description dt:dt=""string"">E-Prime Primary Realtime Clock</Description><StartTime><Timestamp dt:dt=""int"">0</Timestamp><DateUtc dt:dt=""string"">2023-12-15T12:48:17Z</DateUtc></StartTime><FrequencyChanges><FrequencyChange><Frequency dt:dt=""r8"">10000000</Frequency><Timestamp dt:dt=""r8"">2837742858598</Timestamp><Current dt:dt=""r8"">0</Current><DateUtc dt:dt=""string"">2023-12-15T12:48:17Z</DateUtc></FrequencyChange></FrequencyChanges></Clock>\n",2.0.10.252,2.0.10.356,2.0.10.356,Professional,1.0.0.6
Proc5,11,List13,1,11,,,,,425,3,424,425,1272,3,0,,,,,,,,,,,,,,,,,,,,,,,,,,,,,,,,,,,,,,,,,,,DelayDiscountingTitrated,12-15-2023,07:48:17,,3054,1,19,DelayDiscountingTitrated-3054-1,-1228538242,1,60.018,"<?xml version=""1.0""?>\n<Clock xmlns:dt=""urn:schemas-microsoft-com:datatypes""><Description dt:dt=""string"">E-Prime Primary Realtime Clock</Description><StartTime><Timestamp dt:dt=""int"">0</Timestamp><DateUtc dt:dt=""string"">2023-12-15T12:48:17Z</DateUtc></StartTime><FrequencyChanges><FrequencyChange><Frequency dt:dt=""r8"">10000000</Frequency><Timestamp dt:dt=""r8"">2837742858598</Timestamp><Current dt:dt=""r8"">0</Current><DateUtc dt:dt=""string"">2023-12-15T12:48:17Z</DateUtc></FrequencyChange></FrequencyChanges></Clock>\n",2.0.10.252,2.0.10.356,2.0.10.356,Professional,1.0.0.6
discount5,,List8,,,,,,,,,,,,,,,,800,15 years,5475,3,2,1,,,,,,,,,,,,,,,,,,,,,,,,,,,,,,,,,,,DelayDiscountingTitrated,12-15-2023,07:48:17,,3054,1,19,DelayDiscountingTitrated-3054-1,-1228538242,1,60.018,"<?xml version=""1.0""?>\n<Clock xmlns:dt=""urn:schemas-microsoft-com:datatypes""><Description dt:dt=""string"">E-Prime Primary Realtime Clock</Description><StartTime><Timestamp dt:dt=""int"">0</Timestamp><DateUtc dt:dt=""string"">2023-12-15T12:48:17Z</DateUtc></StartTime><FrequencyChanges><FrequencyChange><Frequency dt:dt=""r8"">10000000</Frequency><Timestamp dt:dt=""r8"">2837742858598</Timestamp><Current dt:dt=""r8"">0</Current><DateUtc dt:dt=""string"">2023-12-15T12:48:17Z</DateUtc></FrequencyChange></FrequencyChanges></Clock>\n",2.0.10.252,2.0.10.356,2.0.10.356,Professional,1.0.0.6
fifteenyearproc,,List1,,,,,,,,,,,,,,,,,,,,,,6,1,1,1,,,,,,,,,,,,,,,,,,,,,,,,,,,,,,,DelayDiscountingTitrated,12-15-2023,07:48:17,,3054,1,19,DelayDiscountingTitrated-3054-1,-1228538242,1,60.018,"<?xml version=""1.0""?>\n<Clock xmlns:dt=""urn:schemas-microsoft-com:datatypes""><Description dt:dt=""string"">E-Prime Primary Realtime Clock</Description><StartTime><Timestamp dt:dt=""int"">0</Timestamp><DateUtc dt:dt=""string"">2023-12-15T12:48:17Z</DateUtc></StartTime><FrequencyChanges><FrequencyChange><Frequency dt:dt=""r8"">10000000</Frequency><Timestamp dt:dt=""r8"">2837742858598</Timestamp><Current dt:dt=""r8"">0</Current><DateUtc dt:dt=""string"">2023-12-15T12:48:17Z</DateUtc></FrequencyChange></FrequencyChanges></Clock>\n",2.0.10.252,2.0.10.356,2.0.10.356,Professional,1.0.0.6
Init1,,List9,,,5169,3,0,,900,3,800,,,,,,,,,,,,,,,,,1,1,1,,,,,,,,,,,,,,,,,,,,,,,,,,,,DelayDiscountingTitrated,12-15-2023,07:48:17,,3054,1,19,DelayDiscountingTitrated-3054-1,-1228538242,1,60.018,"<?xml version=""1.0""?>\n<Clock xmlns:dt=""urn:schemas-microsoft-com:datatypes""><Description dt:dt=""string"">E-Prime Primary Realtime Clock</Description><StartTime><Timestamp dt:dt=""int"">0</Timestamp><DateUtc dt:dt=""string"">2023-12-15T12:48:17Z</DateUtc></StartTime><FrequencyChanges><FrequencyChange><Frequency dt:dt=""r8"">10000000</Frequency><Timestamp dt:dt=""r8"">2837742858598</Timestamp><Current dt:dt=""r8"">0</Current><DateUtc dt:dt=""string"">2023-12-15T12:48:17Z</DateUtc></FrequencyChange></FrequencyChanges></Clock>\n",2.0.10.252,2.0.10.356,2.0.10.356,Professional,1.0.0.6
Proc1,,List9,,,,,,,950,3,900,900,3227,3,0,,50,,,,,,,,,,,2,1,2,,,,,,,,,,,,,,,,,,,,,,,,,,,,DelayDiscountingTitrated,12-15-2023,07:48:17,,3054,1,19,DelayDiscountingTitrated-3054-1,-1228538242,1,60.018,"<?xml version=""1.0""?>\n<Clock xmlns:dt=""urn:schemas-microsoft-com:datatypes""><Description dt:dt=""string"">E-Prime Primary Realtime Clock</Description><StartTime><Timestamp dt:dt=""int"">0</Timestamp><DateUtc dt:dt=""string"">2023-12-15T12:48:17Z</DateUtc></StartTime><FrequencyChanges><FrequencyChange><Frequency dt:dt=""r8"">10000000</Frequency><Timestamp dt:dt=""r8"">2837742858598</Timestamp><Current dt:dt=""r8"">0</Current><DateUtc dt:dt=""string"">2023-12-15T12:48:17Z</DateUtc></FrequencyChange></FrequencyChanges></Clock>\n",2.0.10.252,2.0.10.356,2.0.10.356,Professional,1.0.0.6
Proc1,,List9,,,,,,,975,3,950,950,2897,3,0,,25,,,,,,,,,,,3,1,3,,,,,,,,,,,,,,,,,,,,,,,,,,,,DelayDiscountingTitrated,12-15-2023,07:48:17,,3054,1,19,DelayDiscountingTitrated-3054-1,-1228538242,1,60.018,"<?xml version=""1.0""?>\n<Clock xmlns:dt=""urn:schemas-microsoft-com:datatypes""><Description dt:dt=""string"">E-Prime Primary Realtime Clock</Description><StartTime><Timestamp dt:dt=""int"">0</Timestamp><DateUtc dt:dt=""string"">2023-12-15T12:48:17Z</DateUtc></StartTime><FrequencyChanges><FrequencyChange><Frequency dt:dt=""r8"">10000000</Frequency><Timestamp dt:dt=""r8"">2837742858598</Timestamp><Current dt:dt=""r8"">0</Current><DateUtc dt:dt=""string"">2023-12-15T12:48:17Z</DateUtc></FrequencyChange></FrequencyChanges></Clock>\n",2.0.10.252,2.0.10.356,2.0.10.356,Professional,1.0.0.6
Proc1,,List9,,,,,,,987,3,975,975,3804,3,0,,12,,,,,,,,,,,4,1,4,,,,,,,,,,,,,,,,,,,,,,,,,,,,DelayDiscountingTitrated,12-15-2023,07:48:17,,3054,1,19,DelayDiscountingTitrated-3054-1,-1228538242,1,60.018,"<?xml version=""1.0""?>\n<Clock xmlns:dt=""urn:schemas-microsoft-com:datatypes""><Description dt:dt=""string"">E-Prime Primary Realtime Clock</Description><StartTime><Timestamp dt:dt=""int"">0</Timestamp><DateUtc dt:dt=""string"">2023-12-15T12:48:17Z</DateUtc></StartTime><FrequencyChanges><FrequencyChange><Frequency dt:dt=""r8"">10000000</Frequency><Timestamp dt:dt=""r8"">2837742858598</Timestamp><Current dt:dt=""r8"">0</Current><DateUtc dt:dt=""string"">2023-12-15T12:48:17Z</DateUtc></FrequencyChange></FrequencyChanges></Clock>\n",2.0.10.252,2.0.10.356,2.0.10.356,Professional,1.0.0.6
Proc1,,List9,,,,,,,993,3,987,987,2011,3,0,,6,,,,,,,,,,,5,1,5,,,,,,,,,,,,,,,,,,,,,,,,,,,,DelayDiscountingTitrated,12-15-2023,07:48:17,,3054,1,19,DelayDiscountingTitrated-3054-1,-1228538242,1,60.018,"<?xml version=""1.0""?>\n<Clock xmlns:dt=""urn:schemas-microsoft-com:datatypes""><Description dt:dt=""string"">E-Prime Primary Realtime Clock</Description><StartTime><Timestamp dt:dt=""int"">0</Timestamp><DateUtc dt:dt=""string"">2023-12-15T12:48:17Z</DateUtc></StartTime><FrequencyChanges><FrequencyChange><Frequency dt:dt=""r8"">10000000</Frequency><Timestamp dt:dt=""r8"">2837742858598</Timestamp><Current dt:dt=""r8"">0</Current><DateUtc dt:dt=""string"">2023-12-15T12:48:17Z</DateUtc></FrequencyChange></FrequencyChanges></Clock>\n",2.0.10.252,2.0.10.356,2.0.10.356,Professional,1.0.0.6
Proc1,,List9,,,,,,,997,3,993,993,1850,3,0,,4,,,,,,,,,,,6,1,6,,,,,,,,,,,,,,,,,,,,,,,,,,,,DelayDiscountingTitrated,12-15-2023,07:48:17,,3054,1,19,DelayDiscountingTitrated-3054-1,-1228538242,1,60.018,"<?xml version=""1.0""?>\n<Clock xmlns:dt=""urn:schemas-microsoft-com:datatypes""><Description dt:dt=""string"">E-Prime Primary Realtime Clock</Description><StartTime><Timestamp dt:dt=""int"">0</Timestamp><DateUtc dt:dt=""string"">2023-12-15T12:48:17Z</DateUtc></StartTime><FrequencyChanges><FrequencyChange><Frequency dt:dt=""r8"">10000000</Frequency><Timestamp dt:dt=""r8"">2837742858598</Timestamp><Current dt:dt=""r8"">0</Current><DateUtc dt:dt=""string"">2023-12-15T12:48:17Z</DateUtc></FrequencyChange></FrequencyChanges></Clock>\n",2.0.10.252,2.0.10.356,2.0.10.356,Professional,1.0.0.6
Proc1,,List9,,,,,,,999,3,997,997,1942,3,0,,2,,,,,,,,,,,7,1,7,,,,,,,,,,,,,,,,,,,,,,,,,,,,DelayDiscountingTitrated,12-15-2023,07:48:17,,3054,1,19,DelayDiscountingTitrated-3054-1,-1228538242,1,60.018,"<?xml version=""1.0""?>\n<Clock xmlns:dt=""urn:schemas-microsoft-com:datatypes""><Description dt:dt=""string"">E-Prime Primary Realtime Clock</Description><StartTime><Timestamp dt:dt=""int"">0</Timestamp><DateUtc dt:dt=""string"">2023-12-15T12:48:17Z</DateUtc></StartTime><FrequencyChanges><FrequencyChange><Frequency dt:dt=""r8"">10000000</Frequency><Timestamp dt:dt=""r8"">2837742858598</Timestamp><Current dt:dt=""r8"">0</Current><DateUtc dt:dt=""string"">2023-12-15T12:48:17Z</DateUtc></FrequencyChange></FrequencyChanges></Clock>\n",2.0.10.252,2.0.10.356,2.0.10.356,Professional,1.0.0.6
Proc1,,List9,,,,,,,999,3,,999,1792,3,0,,,,,,,,,,,,,8,1,8,,,,,,,,,,,,,,,,,,,,,,,,,,,,DelayDiscountingTitrated,12-15-2023,07:48:17,,3054,1,19,DelayDiscountingTitrated-3054-1,-1228538242,1,60.018,"<?xml version=""1.0""?>\n<Clock xmlns:dt=""urn:schemas-microsoft-com:datatypes""><Description dt:dt=""string"">E-Prime Primary Realtime Clock</Description><StartTime><Timestamp dt:dt=""int"">0</Timestamp><DateUtc dt:dt=""string"">2023-12-15T12:48:17Z</DateUtc></StartTime><FrequencyChanges><FrequencyChange><Frequency dt:dt=""r8"">10000000</Frequency><Timestamp dt:dt=""r8"">2837742858598</Timestamp><Current dt:dt=""r8"">0</Current><DateUtc dt:dt=""string"">2023-12-15T12:48:17Z</DateUtc></FrequencyChange></FrequencyChanges></Clock>\n",2.0.10.252,2.0.10.356,2.0.10.356,Professional,1.0.0.6
discount1,,List4,,,,,,,,,,,,,,,,800,1 month,30,,,,,,,,,,,3,1,1,,,,,,,,,,,,,,,,,,,,,,,,,DelayDiscountingTitrated,12-15-2023,07:48:17,,3054,1,19,DelayDiscountingTitrated-3054-1,-1228538242,1,60.018,"<?xml version=""1.0""?>\n<Clock xmlns:dt=""urn:schemas-microsoft-com:datatypes""><Description dt:dt=""string"">E-Prime Primary Realtime Clock</Description><StartTime><Timestamp dt:dt=""int"">0</Timestamp><DateUtc dt:dt=""string"">2023-12-15T12:48:17Z</DateUtc></StartTime><FrequencyChanges><FrequencyChange><Frequency dt:dt=""r8"">10000000</Frequency><Timestamp dt:dt=""r8"">2837742858598</Timestamp><Current dt:dt=""r8"">0</Current><DateUtc dt:dt=""string"">2023-12-15T12:48:17Z</DateUtc></FrequencyChange></FrequencyChanges></Clock>\n",2.0.10.252,2.0.10.356,2.0.10.356,Professional,1.0.0.6
onemthproc,,List1,,,,,,,,,,,,,,,,,,,,,,2,1,2,2,,,,,,,,,,,,,,,,,,,,,,,,,,,,,,,DelayDiscountingTitrated,12-15-2023,07:48:17,,3054,1,19,DelayDiscountingTitrated-3054-1,-1228538242,1,60.018,"<?xml version=""1.0""?>\n<Clock xmlns:dt=""urn:schemas-microsoft-com:datatypes""><Description dt:dt=""string"">E-Prime Primary Realtime Clock</Description><StartTime><Timestamp dt:dt=""int"">0</Timestamp><DateUtc dt:dt=""string"">2023-12-15T12:48:17Z</DateUtc></StartTime><FrequencyChanges><FrequencyChange><Frequency dt:dt=""r8"">10000000</Frequency><Timestamp dt:dt=""r8"">2837742858598</Timestamp><Current dt:dt=""r8"">0</Current><DateUtc dt:dt=""string"">2023-12-15T12:48:17Z</DateUtc></FrequencyChange></FrequencyChanges></Clock>\n",2.0.10.252,2.0.10.356,2.0.10.356,Professional,1.0.0.6
Init3,,List11,,,2884,1,0,,400,1,800,,,,,,,,,,,,,,,,,,,,,,,1,1,1,,,,,,,,,,,,,,,,,,,,,,DelayDiscountingTitrated,12-15-2023,07:48:17,,3054,1,19,DelayDiscountingTitrated-3054-1,-1228538242,1,60.018,"<?xml version=""1.0""?>\n<Clock xmlns:dt=""urn:schemas-microsoft-com:datatypes""><Description dt:dt=""string"">E-Prime Primary Realtime Clock</Description><StartTime><Timestamp dt:dt=""int"">0</Timestamp><DateUtc dt:dt=""string"">2023-12-15T12:48:17Z</DateUtc></StartTime><FrequencyChanges><FrequencyChange><Frequency dt:dt=""r8"">10000000</Frequency><Timestamp dt:dt=""r8"">2837742858598</Timestamp><Current dt:dt=""r8"">0</Current><DateUtc dt:dt=""string"">2023-12-15T12:48:17Z</DateUtc></FrequencyChange></FrequencyChanges></Clock>\n",2.0.10.252,2.0.10.356,2.0.10.356,Professional,1.0.0.6
Proc3,,List11,,,,,,,600,3,400,400,1352,3,0,,200,,,,,,,,,,,,,,,,,2,1,2,,,,,,,,,,,,,,,,,,,,,,DelayDiscountingTitrated,12-15-2023,07:48:17,,3054,1,19,DelayDiscountingTitrated-3054-1,-1228538242,1,60.018,"<?xml version=""1.0""?>\n<Clock xmlns:dt=""urn:schemas-microsoft-com:datatypes""><Description dt:dt=""string"">E-Prime Primary Realtime Clock</Description><StartTime><Timestamp dt:dt=""int"">0</Timestamp><DateUtc dt:dt=""string"">2023-12-15T12:48:17Z</DateUtc></StartTime><FrequencyChanges><FrequencyChange><Frequency dt:dt=""r8"">10000000</Frequency><Timestamp dt:dt=""r8"">2837742858598</Timestamp><Current dt:dt=""r8"">0</Current><DateUtc dt:dt=""string"">2023-12-15T12:48:17Z</DateUtc></FrequencyChange></FrequencyChanges></Clock>\n",2.0.10.252,2.0.10.356,2.0.10.356,Professional,1.0.0.6
Proc3,,List11,,,,,,,700,3,600,600,1113,3,0,,100,,,,,,,,,,,,,,,,,3,1,3,,,,,,,,,,,,,,,,,,,,,,DelayDiscountingTitrated,12-15-2023,07:48:17,,3054,1,19,DelayDiscountingTitrated-3054-1,-1228538242,1,60.018,"<?xml version=""1.0""?>\n<Clock xmlns:dt=""urn:schemas-microsoft-com:datatypes""><Description dt:dt=""string"">E-Prime Primary Realtime Clock</Description><StartTime><Timestamp dt:dt=""int"">0</Timestamp><DateUtc dt:dt=""string"">2023-12-15T12:48:17Z</DateUtc></StartTime><FrequencyChanges><FrequencyChange><Frequency dt:dt=""r8"">10000000</Frequency><Timestamp dt:dt=""r8"">2837742858598</Timestamp><Current dt:dt=""r8"">0</Current><DateUtc dt:dt=""string"">2023-12-15T12:48:17Z</DateUtc></FrequencyChange></FrequencyChanges></Clock>\n",2.0.10.252,2.0.10.356,2.0.10.356,Professional,1.0.0.6
Proc3,,List11,,,,,,,650,1,700,700,4083,1,0,,50,,,,,,,,,,,,,,,,,4,1,4,,,,,,,,,,,,,,,,,,,,,,DelayDiscountingTitrated,12-15-2023,07:48:17,,3054,1,19,DelayDiscountingTitrated-3054-1,-1228538242,1,60.018,"<?xml version=""1.0""?>\n<Clock xmlns:dt=""urn:schemas-microsoft-com:datatypes""><Description dt:dt=""string"">E-Prime Primary Realtime Clock</Description><StartTime><Timestamp dt:dt=""int"">0</Timestamp><DateUtc dt:dt=""string"">2023-12-15T12:48:17Z</DateUtc></StartTime><FrequencyChanges><FrequencyChange><Frequency dt:dt=""r8"">10000000</Frequency><Timestamp dt:dt=""r8"">2837742858598</Timestamp><Current dt:dt=""r8"">0</Current><DateUtc dt:dt=""string"">2023-12-15T12:48:17Z</DateUtc></FrequencyChange></FrequencyChanges></Clock>\n",2.0.10.252,2.0.10.356,2.0.10.356,Professional,1.0.0.6
Proc3,,List11,,,,,,,675,3,650,650,1311,3,0,,25,,,,,,,,,,,,,,,,,5,1,5,,,,,,,,,,,,,,,,,,,,,,DelayDiscountingTitrated,12-15-2023,07:48:17,,3054,1,19,DelayDiscountingTitrated-3054-1,-1228538242,1,60.018,"<?xml version=""1.0""?>\n<Clock xmlns:dt=""urn:schemas-microsoft-com:datatypes""><Description dt:dt=""string"">E-Prime Primary Realtime Clock</Description><StartTime><Timestamp dt:dt=""int"">0</Timestamp><DateUtc dt:dt=""string"">2023-12-15T12:48:17Z</DateUtc></StartTime><FrequencyChanges><FrequencyChange><Frequency dt:dt=""r8"">10000000</Frequency><Timestamp dt:dt=""r8"">2837742858598</Timestamp><Current dt:dt=""r8"">0</Current><DateUtc dt:dt=""string"">2023-12-15T12:48:17Z</DateUtc></FrequencyChange></FrequencyChanges></Clock>\n",2.0.10.252,2.0.10.356,2.0.10.356,Professional,1.0.0.6
Proc3,,List11,,,,,,,687,3,675,675,705,3,0,,12,,,,,,,,,,,,,,,,,6,1,6,,,,,,,,,,,,,,,,,,,,,,DelayDiscountingTitrated,12-15-2023,07:48:17,,3054,1,19,DelayDiscountingTitrated-3054-1,-1228538242,1,60.018,"<?xml version=""1.0""?>\n<Clock xmlns:dt=""urn:schemas-microsoft-com:datatypes""><Description dt:dt=""string"">E-Prime Primary Realtime Clock</Description><StartTime><Timestamp dt:dt=""int"">0</Timestamp><DateUtc dt:dt=""string"">2023-12-15T12:48:17Z</DateUtc></StartTime><FrequencyChanges><FrequencyChange><Frequency dt:dt=""r8"">10000000</Frequency><Timestamp dt:dt=""r8"">2837742858598</Timestamp><Current dt:dt=""r8"">0</Current><DateUtc dt:dt=""string"">2023-12-15T12:48:17Z</DateUtc></FrequencyChange></FrequencyChanges></Clock>\n",2.0.10.252,2.0.10.356,2.0.10.356,Professional,1.0.0.6
Proc3,,List11,,,,,,,693,3,687,687,875,3,0,,6,,,,,,,,,,,,,,,,,7,1,7,,,,,,,,,,,,,,,,,,,,,,DelayDiscountingTitrated,12-15-2023,07:48:17,,3054,1,19,DelayDiscountingTitrated-3054-1,-1228538242,1,60.018,"<?xml version=""1.0""?>\n<Clock xmlns:dt=""urn:schemas-microsoft-com:datatypes""><Description dt:dt=""string"">E-Prime Primary Realtime Clock</Description><StartTime><Timestamp dt:dt=""int"">0</Timestamp><DateUtc dt:dt=""string"">2023-12-15T12:48:17Z</DateUtc></StartTime><FrequencyChanges><FrequencyChange><Frequency dt:dt=""r8"">10000000</Frequency><Timestamp dt:dt=""r8"">2837742858598</Timestamp><Current dt:dt=""r8"">0</Current><DateUtc dt:dt=""string"">2023-12-15T12:48:17Z</DateUtc></FrequencyChange></FrequencyChanges></Clock>\n",2.0.10.252,2.0.10.356,2.0.10.356,Professional,1.0.0.6
Proc3,,List11,,,,,,,696,3,693,693,695,3,0,,3,,,,,,,,,,,,,,,,,8,1,8,,,,,,,,,,,,,,,,,,,,,,DelayDiscountingTitrated,12-15-2023,07:48:17,,3054,1,19,DelayDiscountingTitrated-3054-1,-1228538242,1,60.018,"<?xml version=""1.0""?>\n<Clock xmlns:dt=""urn:schemas-microsoft-com:datatypes""><Description dt:dt=""string"">E-Prime Primary Realtime Clock</Description><StartTime><Timestamp dt:dt=""int"">0</Timestamp><DateUtc dt:dt=""string"">2023-12-15T12:48:17Z</DateUtc></StartTime><FrequencyChanges><FrequencyChange><Frequency dt:dt=""r8"">10000000</Frequency><Timestamp dt:dt=""r8"">2837742858598</Timestamp><Current dt:dt=""r8"">0</Current><DateUtc dt:dt=""string"">2023-12-15T12:48:17Z</DateUtc></FrequencyChange></FrequencyChanges></Clock>\n",2.0.10.252,2.0.10.356,2.0.10.356,Professional,1.0.0.6
Proc3,,List11,,,,,,,698,3,696,696,650,3,0,,2,,,,,,,,,,,,,,,,,9,1,9,,,,,,,,,,,,,,,,,,,,,,DelayDiscountingTitrated,12-15-2023,07:48:17,,3054,1,19,DelayDiscountingTitrated-3054-1,-1228538242,1,60.018,"<?xml version=""1.0""?>\n<Clock xmlns:dt=""urn:schemas-microsoft-com:datatypes""><Description dt:dt=""string"">E-Prime Primary Realtime Clock</Description><StartTime><Timestamp dt:dt=""int"">0</Timestamp><DateUtc dt:dt=""string"">2023-12-15T12:48:17Z</DateUtc></StartTime><FrequencyChanges><FrequencyChange><Frequency dt:dt=""r8"">10000000</Frequency><Timestamp dt:dt=""r8"">2837742858598</Timestamp><Current dt:dt=""r8"">0</Current><DateUtc dt:dt=""string"">2023-12-15T12:48:17Z</DateUtc></FrequencyChange></FrequencyChanges></Clock>\n",2.0.10.252,2.0.10.356,2.0.10.356,Professional,1.0.0.6
Proc3,,List11,,,,,,,699,3,698,698,494,3,0,,1,,,,,,,,,,,,,,,,,10,1,10,,,,,,,,,,,,,,,,,,,,,,DelayDiscountingTitrated,12-15-2023,07:48:17,,3054,1,19,DelayDiscountingTitrated-3054-1,-1228538242,1,60.018,"<?xml version=""1.0""?>\n<Clock xmlns:dt=""urn:schemas-microsoft-com:datatypes""><Description dt:dt=""string"">E-Prime Primary Realtime Clock</Description><StartTime><Timestamp dt:dt=""int"">0</Timestamp><DateUtc dt:dt=""string"">2023-12-15T12:48:17Z</DateUtc></StartTime><FrequencyChanges><FrequencyChange><Frequency dt:dt=""r8"">10000000</Frequency><Timestamp dt:dt=""r8"">2837742858598</Timestamp><Current dt:dt=""r8"">0</Current><DateUtc dt:dt=""string"">2023-12-15T12:48:17Z</DateUtc></FrequencyChange></FrequencyChanges></Clock>\n",2.0.10.252,2.0.10.356,2.0.10.356,Professional,1.0.0.6
Proc3,,List11,,,,,,,699,3,698,699,1001,3,0,,,,,,,,,,,,,,,,,,,11,1,11,,,,,,,,,,,,,,,,,,,,,,DelayDiscountingTitrated,12-15-2023,07:48:17,,3054,1,19,DelayDiscountingTitrated-3054-1,-1228538242,1,60.018,"<?xml version=""1.0""?>\n<Clock xmlns:dt=""urn:schemas-microsoft-com:datatypes""><Description dt:dt=""string"">E-Prime Primary Realtime Clock</Description><StartTime><Timestamp dt:dt=""int"">0</Timestamp><DateUtc dt:dt=""string"">2023-12-15T12:48:17Z</DateUtc></StartTime><FrequencyChanges><FrequencyChange><Frequency dt:dt=""r8"">10000000</Frequency><Timestamp dt:dt=""r8"">2837742858598</Timestamp><Current dt:dt=""r8"">0</Current><DateUtc dt:dt=""string"">2023-12-15T12:48:17Z</DateUtc></FrequencyChange></FrequencyChanges></Clock>\n",2.0.10.252,2.0.10.356,2.0.10.356,Professional,1.0.0.6
discount3,,List6,,,,,,,,,,,,,,,,800,1 year,365,,,,,,,,,,,,,,,,,3,1,1,,,,,,,,,,,,,,,,,,,DelayDiscountingTitrated,12-15-2023,07:48:17,,3054,1,19,DelayDiscountingTitrated-3054-1,-1228538242,1,60.018,"<?xml version=""1.0""?>\n<Clock xmlns:dt=""urn:schemas-microsoft-com:datatypes""><Description dt:dt=""string"">E-Prime Primary Realtime Clock</Description><StartTime><Timestamp dt:dt=""int"">0</Timestamp><DateUtc dt:dt=""string"">2023-12-15T12:48:17Z</DateUtc></StartTime><FrequencyChanges><FrequencyChange><Frequency dt:dt=""r8"">10000000</Frequency><Timestamp dt:dt=""r8"">2837742858598</Timestamp><Current dt:dt=""r8"">0</Current><DateUtc dt:dt=""string"">2023-12-15T12:48:17Z</DateUtc></FrequencyChange></FrequencyChanges></Clock>\n",2.0.10.252,2.0.10.356,2.0.10.356,Professional,1.0.0.6
oneyearproc,,List1,,,,,,,,,,,,,,,,,,,,,,4,1,3,3,,,,,,,,,,,,,,,,,,,,,,,,,,,,,,,DelayDiscountingTitrated,12-15-2023,07:48:17,,3054,1,19,DelayDiscountingTitrated-3054-1,-1228538242,1,60.018,"<?xml version=""1.0""?>\n<Clock xmlns:dt=""urn:schemas-microsoft-com:datatypes""><Description dt:dt=""string"">E-Prime Primary Realtime Clock</Description><StartTime><Timestamp dt:dt=""int"">0</Timestamp><DateUtc dt:dt=""string"">2023-12-15T12:48:17Z</DateUtc></StartTime><FrequencyChanges><FrequencyChange><Frequency dt:dt=""r8"">10000000</Frequency><Timestamp dt:dt=""r8"">2837742858598</Timestamp><Current dt:dt=""r8"">0</Current><DateUtc dt:dt=""string"">2023-12-15T12:48:17Z</DateUtc></FrequencyChange></FrequencyChanges></Clock>\n",2.0.10.252,2.0.10.356,2.0.10.356,Professional,1.0.0.6
Init4,,List12,,,2237,3,0,,600,3,200,,,,,,,,,,,,,,,,,,,,,,,,,,,,,1,1,1,,,,,,,,,,,,,,,,DelayDiscountingTitrated,12-15-2023,07:48:17,,3054,1,19,DelayDiscountingTitrated-3054-1,-1228538242,1,60.018,"<?xml version=""1.0""?>\n<Clock xmlns:dt=""urn:schemas-microsoft-com:datatypes""><Description dt:dt=""string"">E-Prime Primary Realtime Clock</Description><StartTime><Timestamp dt:dt=""int"">0</Timestamp><DateUtc dt:dt=""string"">2023-12-15T12:48:17Z</DateUtc></StartTime><FrequencyChanges><FrequencyChange><Frequency dt:dt=""r8"">10000000</Frequency><Timestamp dt:dt=""r8"">2837742858598</Timestamp><Current dt:dt=""r8"">0</Current><DateUtc dt:dt=""string"">2023-12-15T12:48:17Z</DateUtc></FrequencyChange></FrequencyChanges></Clock>\n",2.0.10.252,2.0.10.356,2.0.10.356,Professional,1.0.0.6
Proc4,,List12,,,,,,,800,3,600,600,3251,3,0,,200,,,,,,,,,,,,,,,,,,,,,,,2,1,2,,,,,,,,,,,,,,,,DelayDiscountingTitrated,12-15-2023,07:48:17,,3054,1,19,DelayDiscountingTitrated-3054-1,-1228538242,1,60.018,"<?xml version=""1.0""?>\n<Clock xmlns:dt=""urn:schemas-microsoft-com:datatypes""><Description dt:dt=""string"">E-Prime Primary Realtime Clock</Description><StartTime><Timestamp dt:dt=""int"">0</Timestamp><DateUtc dt:dt=""string"">2023-12-15T12:48:17Z</DateUtc></StartTime><FrequencyChanges><FrequencyChange><Frequency dt:dt=""r8"">10000000</Frequency><Timestamp dt:dt=""r8"">2837742858598</Timestamp><Current dt:dt=""r8"">0</Current><DateUtc dt:dt=""string"">2023-12-15T12:48:17Z</DateUtc></FrequencyChange></FrequencyChanges></Clock>\n",2.0.10.252,2.0.10.356,2.0.10.356,Professional,1.0.0.6
Proc4,,List12,,,,,,,700,1,800,800,2448,1,0,,100,,,,,,,,,,,,,,,,,,,,,,,3,1,3,,,,,,,,,,,,,,,,DelayDiscountingTitrated,12-15-2023,07:48:17,,3054,1,19,DelayDiscountingTitrated-3054-1,-1228538242,1,60.018,"<?xml version=""1.0""?>\n<Clock xmlns:dt=""urn:schemas-microsoft-com:datatypes""><Description dt:dt=""string"">E-Prime Primary Realtime Clock</Description><StartTime><Timestamp dt:dt=""int"">0</Timestamp><DateUtc dt:dt=""string"">2023-12-15T12:48:17Z</DateUtc></StartTime><FrequencyChanges><FrequencyChange><Frequency dt:dt=""r8"">10000000</Frequency><Timestamp dt:dt=""r8"">2837742858598</Timestamp><Current dt:dt=""r8"">0</Current><DateUtc dt:dt=""string"">2023-12-15T12:48:17Z</DateUtc></FrequencyChange></FrequencyChanges></Clock>\n",2.0.10.252,2.0.10.356,2.0.10.356,Professional,1.0.0.6
Proc4,,List12,,,,,,,750,3,700,700,2765,3,0,,50,,,,,,,,,,,,,,,,,,,,,,,4,1,4,,,,,,,,,,,,,,,,DelayDiscountingTitrated,12-15-2023,07:48:17,,3054,1,19,DelayDiscountingTitrated-3054-1,-1228538242,1,60.018,"<?xml version=""1.0""?>\n<Clock xmlns:dt=""urn:schemas-microsoft-com:datatypes""><Description dt:dt=""string"">E-Prime Primary Realtime Clock</Description><StartTime><Timestamp dt:dt=""int"">0</Timestamp><DateUtc dt:dt=""string"">2023-12-15T12:48:17Z</DateUtc></StartTime><FrequencyChanges><FrequencyChange><Frequency dt:dt=""r8"">10000000</Frequency><Timestamp dt:dt=""r8"">2837742858598</Timestamp><Current dt:dt=""r8"">0</Current><DateUtc dt:dt=""string"">2023-12-15T12:48:17Z</DateUtc></FrequencyChange></FrequencyChanges></Clock>\n",2.0.10.252,2.0.10.356,2.0.10.356,Professional,1.0.0.6
Proc4,,List12,,,,,,,775,3,750,750,1366,3,0,,25,,,,,,,,,,,,,,,,,,,,,,,5,1,5,,,,,,,,,,,,,,,,DelayDiscountingTitrated,12-15-2023,07:48:17,,3054,1,19,DelayDiscountingTitrated-3054-1,-1228538242,1,60.018,"<?xml version=""1.0""?>\n<Clock xmlns:dt=""urn:schemas-microsoft-com:datatypes""><Description dt:dt=""string"">E-Prime Primary Realtime Clock</Description><StartTime><Timestamp dt:dt=""int"">0</Timestamp><DateUtc dt:dt=""string"">2023-12-15T12:48:17Z</DateUtc></StartTime><FrequencyChanges><FrequencyChange><Frequency dt:dt=""r8"">10000000</Frequency><Timestamp dt:dt=""r8"">2837742858598</Timestamp><Current dt:dt=""r8"">0</Current><DateUtc dt:dt=""string"">2023-12-15T12:48:17Z</DateUtc></FrequencyChange></FrequencyChanges></Clock>\n",2.0.10.252,2.0.10.356,2.0.10.356,Professional,1.0.0.6
Proc4,,List12,,,,,,,787,3,775,775,918,3,0,,12,,,,,,,,,,,,,,,,,,,,,,,6,1,6,,,,,,,,,,,,,,,,DelayDiscountingTitrated,12-15-2023,07:48:17,,3054,1,19,DelayDiscountingTitrated-3054-1,-1228538242,1,60.018,"<?xml version=""1.0""?>\n<Clock xmlns:dt=""urn:schemas-microsoft-com:datatypes""><Description dt:dt=""string"">E-Prime Primary Realtime Clock</Description><StartTime><Timestamp dt:dt=""int"">0</Timestamp><DateUtc dt:dt=""string"">2023-12-15T12:48:17Z</DateUtc></StartTime><FrequencyChanges><FrequencyChange><Frequency dt:dt=""r8"">10000000</Frequency><Timestamp dt:dt=""r8"">2837742858598</Timestamp><Current dt:dt=""r8"">0</Current><DateUtc dt:dt=""string"">2023-12-15T12:48:17Z</DateUtc></FrequencyChange></FrequencyChanges></Clock>\n",2.0.10.252,2.0.10.356,2.0.10.356,Professional,1.0.0.6
Proc4,,List12,,,,,,,793,3,787,787,1184,3,0,,6,,,,,,,,,,,,,,,,,,,,,,,7,1,7,,,,,,,,,,,,,,,,DelayDiscountingTitrated,12-15-2023,07:48:17,,3054,1,19,DelayDiscountingTitrated-3054-1,-1228538242,1,60.018,"<?xml version=""1.0""?>\n<Clock xmlns:dt=""urn:schemas-microsoft-com:datatypes""><Description dt:dt=""string"">E-Prime Primary Realtime Clock</Description><StartTime><Timestamp dt:dt=""int"">0</Timestamp><DateUtc dt:dt=""string"">2023-12-15T12:48:17Z</DateUtc></StartTime><FrequencyChanges><FrequencyChange><Frequency dt:dt=""r8"">10000000</Frequency><Timestamp dt:dt=""r8"">2837742858598</Timestamp><Current dt:dt=""r8"">0</Current><DateUtc dt:dt=""string"">2023-12-15T12:48:17Z</DateUtc></FrequencyChange></FrequencyChanges></Clock>\n",2.0.10.252,2.0.10.356,2.0.10.356,Professional,1.0.0.6
Proc4,,List12,,,,,,,796,3,793,793,599,3,0,,3,,,,,,,,,,,,,,,,,,,,,,,8,1,8,,,,,,,,,,,,,,,,DelayDiscountingTitrated,12-15-2023,07:48:17,,3054,1,19,DelayDiscountingTitrated-3054-1,-1228538242,1,60.018,"<?xml version=""1.0""?>\n<Clock xmlns:dt=""urn:schemas-microsoft-com:datatypes""><Description dt:dt=""string"">E-Prime Primary Realtime Clock</Description><StartTime><Timestamp dt:dt=""int"">0</Timestamp><DateUtc dt:dt=""string"">2023-12-15T12:48:17Z</DateUtc></StartTime><FrequencyChanges><FrequencyChange><Frequency dt:dt=""r8"">10000000</Frequency><Timestamp dt:dt=""r8"">2837742858598</Timestamp><Current dt:dt=""r8"">0</Current><DateUtc dt:dt=""string"">2023-12-15T12:48:17Z</DateUtc></FrequencyChange></FrequencyChanges></Clock>\n",2.0.10.252,2.0.10.356,2.0.10.356,Professional,1.0.0.6
Proc4,,List12,,,,,,,798,3,796,796,1062,3,0,,2,,,,,,,,,,,,,,,,,,,,,,,9,1,9,,,,,,,,,,,,,,,,DelayDiscountingTitrated,12-15-2023,07:48:17,,3054,1,19,DelayDiscountingTitrated-3054-1,-1228538242,1,60.018,"<?xml version=""1.0""?>\n<Clock xmlns:dt=""urn:schemas-microsoft-com:datatypes""><Description dt:dt=""string"">E-Prime Primary Realtime Clock</Description><StartTime><Timestamp dt:dt=""int"">0</Timestamp><DateUtc dt:dt=""string"">2023-12-15T12:48:17Z</DateUtc></StartTime><FrequencyChanges><FrequencyChange><Frequency dt:dt=""r8"">10000000</Frequency><Timestamp dt:dt=""r8"">2837742858598</Timestamp><Current dt:dt=""r8"">0</Current><DateUtc dt:dt=""string"">2023-12-15T12:48:17Z</DateUtc></FrequencyChange></FrequencyChanges></Clock>\n",2.0.10.252,2.0.10.356,2.0.10.356,Professional,1.0.0.6
Proc4,,List12,,,,,,,799,3,798,798,1274,3,0,,1,,,,,,,,,,,,,,,,,,,,,,,10,1,10,,,,,,,,,,,,,,,,DelayDiscountingTitrated,12-15-2023,07:48:17,,3054,1,19,DelayDiscountingTitrated-3054-1,-1228538242,1,60.018,"<?xml version=""1.0""?>\n<Clock xmlns:dt=""urn:schemas-microsoft-com:datatypes""><Description dt:dt=""string"">E-Prime Primary Realtime Clock</Description><StartTime><Timestamp dt:dt=""int"">0</Timestamp><DateUtc dt:dt=""string"">2023-12-15T12:48:17Z</DateUtc></StartTime><FrequencyChanges><FrequencyChange><Frequency dt:dt=""r8"">10000000</Frequency><Timestamp dt:dt=""r8"">2837742858598</Timestamp><Current dt:dt=""r8"">0</Current><DateUtc dt:dt=""string"">2023-12-15T12:48:17Z</DateUtc></FrequencyChange></FrequencyChanges></Clock>\n",2.0.10.252,2.0.10.356,2.0.10.356,Professional,1.0.0.6
Proc4,,List12,,,,,,,799,3,798,799,630,3,0,,,,,,,,,,,,,,,,,,,,,,,,,11,1,11,,,,,,,,,,,,,,,,DelayDiscountingTitrated,12-15-2023,07:48:17,,3054,1,19,DelayDiscountingTitrated-3054-1,-1228538242,1,60.018,"<?xml version=""1.0""?>\n<Clock xmlns:dt=""urn:schemas-microsoft-com:datatypes""><Description dt:dt=""string"">E-Prime Primary Realtime Clock</Description><StartTime><Timestamp dt:dt=""int"">0</Timestamp><DateUtc dt:dt=""string"">2023-12-15T12:48:17Z</DateUtc></StartTime><FrequencyChanges><FrequencyChange><Frequency dt:dt=""r8"">10000000</Frequency><Timestamp dt:dt=""r8"">2837742858598</Timestamp><Current dt:dt=""r8"">0</Current><DateUtc dt:dt=""string"">2023-12-15T12:48:17Z</DateUtc></FrequencyChange></FrequencyChanges></Clock>\n",2.0.10.252,2.0.10.356,2.0.10.356,Professional,1.0.0.6
discount4,,List7,,,,,,,,,,,,,,,,200,5 years,1825,,,,,,,,,,,,,,,,,,,,,,,1,1,1,,,,,,,,,,,,,DelayDiscountingTitrated,12-15-2023,07:48:17,,3054,1,19,DelayDiscountingTitrated-3054-1,-1228538242,1,60.018,"<?xml version=""1.0""?>\n<Clock xmlns:dt=""urn:schemas-microsoft-com:datatypes""><Description dt:dt=""string"">E-Prime Primary Realtime Clock</Description><StartTime><Timestamp dt:dt=""int"">0</Timestamp><DateUtc dt:dt=""string"">2023-12-15T12:48:17Z</DateUtc></StartTime><FrequencyChanges><FrequencyChange><Frequency dt:dt=""r8"">10000000</Frequency><Timestamp dt:dt=""r8"">2837742858598</Timestamp><Current dt:dt=""r8"">0</Current><DateUtc dt:dt=""string"">2023-12-15T12:48:17Z</DateUtc></FrequencyChange></FrequencyChanges></Clock>\n",2.0.10.252,2.0.10.356,2.0.10.356,Professional,1.0.0.6
fiveyearproc,,List1,,,,,,,,,,,,,,,,,,,,,,5,1,4,4,,,,,,,,,,,,,,,,,,,,,,,,,,,,,,,DelayDiscountingTitrated,12-15-2023,07:48:17,,3054,1,19,DelayDiscountingTitrated-3054-1,-1228538242,1,60.018,"<?xml version=""1.0""?>\n<Clock xmlns:dt=""urn:schemas-microsoft-com:datatypes""><Description dt:dt=""string"">E-Prime Primary Realtime Clock</Description><StartTime><Timestamp dt:dt=""int"">0</Timestamp><DateUtc dt:dt=""string"">2023-12-15T12:48:17Z</DateUtc></StartTime><FrequencyChanges><FrequencyChange><Frequency dt:dt=""r8"">10000000</Frequency><Timestamp dt:dt=""r8"">2837742858598</Timestamp><Current dt:dt=""r8"">0</Current><DateUtc dt:dt=""string"">2023-12-15T12:48:17Z</DateUtc></FrequencyChange></FrequencyChanges></Clock>\n",2.0.10.252,2.0.10.356,2.0.10.356,Professional,1.0.0.6
TrialProcInit,,List2,,,2813,3,0,,900,3,800,,,,,,,,,,,,,,,,,,,,,,,,,,,,,,,,,,,1,1,1,,,,,,,,,,DelayDiscountingTitrated,12-15-2023,07:48:17,,3054,1,19,DelayDiscountingTitrated-3054-1,-1228538242,1,60.018,"<?xml version=""1.0""?>\n<Clock xmlns:dt=""urn:schemas-microsoft-com:datatypes""><Description dt:dt=""string"">E-Prime Primary Realtime Clock</Description><StartTime><Timestamp dt:dt=""int"">0</Timestamp><DateUtc dt:dt=""string"">2023-12-15T12:48:17Z</DateUtc></StartTime><FrequencyChanges><FrequencyChange><Frequency dt:dt=""r8"">10000000</Frequency><Timestamp dt:dt=""r8"">2837742858598</Timestamp><Current dt:dt=""r8"">0</Current><DateUtc dt:dt=""string"">2023-12-15T12:48:17Z</DateUtc></FrequencyChange></FrequencyChanges></Clock>\n",2.0.10.252,2.0.10.356,2.0.10.356,Professional,1.0.0.6
TrialProc,,List2,,,,,,,950,3,900,900,1523,3,0,,50,,,,,,,,,,,,,,,,,,,,,,,,,,,,,2,1,2,,,,,,,,,,DelayDiscountingTitrated,12-15-2023,07:48:17,,3054,1,19,DelayDiscountingTitrated-3054-1,-1228538242,1,60.018,"<?xml version=""1.0""?>\n<Clock xmlns:dt=""urn:schemas-microsoft-com:datatypes""><Description dt:dt=""string"">E-Prime Primary Realtime Clock</Description><StartTime><Timestamp dt:dt=""int"">0</Timestamp><DateUtc dt:dt=""string"">2023-12-15T12:48:17Z</DateUtc></StartTime><FrequencyChanges><FrequencyChange><Frequency dt:dt=""r8"">10000000</Frequency><Timestamp dt:dt=""r8"">2837742858598</Timestamp><Current dt:dt=""r8"">0</Current><DateUtc dt:dt=""string"">2023-12-15T12:48:17Z</DateUtc></FrequencyChange></FrequencyChanges></Clock>\n",2.0.10.252,2.0.10.356,2.0.10.356,Professional,1.0.0.6
TrialProc,,List2,,,,,,,975,3,950,950,1349,3,0,,25,,,,,,,,,,,,,,,,,,,,,,,,,,,,,3,1,3,,,,,,,,,,DelayDiscountingTitrated,12-15-2023,07:48:17,,3054,1,19,DelayDiscountingTitrated-3054-1,-1228538242,1,60.018,"<?xml version=""1.0""?>\n<Clock xmlns:dt=""urn:schemas-microsoft-com:datatypes""><Description dt:dt=""string"">E-Prime Primary Realtime Clock</Description><StartTime><Timestamp dt:dt=""int"">0</Timestamp><DateUtc dt:dt=""string"">2023-12-15T12:48:17Z</DateUtc></StartTime><FrequencyChanges><FrequencyChange><Frequency dt:dt=""r8"">10000000</Frequency><Timestamp dt:dt=""r8"">2837742858598</Timestamp><Current dt:dt=""r8"">0</Current><DateUtc dt:dt=""string"">2023-12-15T12:48:17Z</DateUtc></FrequencyChange></FrequencyChanges></Clock>\n",2.0.10.252,2.0.10.356,2.0.10.356,Professional,1.0.0.6
TrialProc,,List2,,,,,,,987,3,975,975,1134,3,0,,12,,,,,,,,,,,,,,,,,,,,,,,,,,,,,4,1,4,,,,,,,,,,DelayDiscountingTitrated,12-15-2023,07:48:17,,3054,1,19,DelayDiscountingTitrated-3054-1,-1228538242,1,60.018,"<?xml version=""1.0""?>\n<Clock xmlns:dt=""urn:schemas-microsoft-com:datatypes""><Description dt:dt=""string"">E-Prime Primary Realtime Clock</Description><StartTime><Timestamp dt:dt=""int"">0</Timestamp><DateUtc dt:dt=""string"">2023-12-15T12:48:17Z</DateUtc></StartTime><FrequencyChanges><FrequencyChange><Frequency dt:dt=""r8"">10000000</Frequency><Timestamp dt:dt=""r8"">2837742858598</Timestamp><Current dt:dt=""r8"">0</Current><DateUtc dt:dt=""string"">2023-12-15T12:48:17Z</DateUtc></FrequencyChange></FrequencyChanges></Clock>\n",2.0.10.252,2.0.10.356,2.0.10.356,Professional,1.0.0.6
TrialProc,,List2,,,,,,,993,3,987,987,863,3,0,,6,,,,,,,,,,,,,,,,,,,,,,,,,,,,,5,1,5,,,,,,,,,,DelayDiscountingTitrated,12-15-2023,07:48:17,,3054,1,19,DelayDiscountingTitrated-3054-1,-1228538242,1,60.018,"<?xml version=""1.0""?>\n<Clock xmlns:dt=""urn:schemas-microsoft-com:datatypes""><Description dt:dt=""string"">E-Prime Primary Realtime Clock</Description><StartTime><Timestamp dt:dt=""int"">0</Timestamp><DateUtc dt:dt=""string"">2023-12-15T12:48:17Z</DateUtc></StartTime><FrequencyChanges><FrequencyChange><Frequency dt:dt=""r8"">10000000</Frequency><Timestamp dt:dt=""r8"">2837742858598</Timestamp><Current dt:dt=""r8"">0</Current><DateUtc dt:dt=""string"">2023-12-15T12:48:17Z</DateUtc></FrequencyChange></FrequencyChanges></Clock>\n",2.0.10.252,2.0.10.356,2.0.10.356,Professional,1.0.0.6
TrialProc,,List2,,,,,,,997,3,993,993,603,3,0,,4,,,,,,,,,,,,,,,,,,,,,,,,,,,,,6,1,6,,,,,,,,,,DelayDiscountingTitrated,12-15-2023,07:48:17,,3054,1,19,DelayDiscountingTitrated-3054-1,-1228538242,1,60.018,"<?xml version=""1.0""?>\n<Clock xmlns:dt=""urn:schemas-microsoft-com:datatypes""><Description dt:dt=""string"">E-Prime Primary Realtime Clock</Description><StartTime><Timestamp dt:dt=""int"">0</Timestamp><DateUtc dt:dt=""string"">2023-12-15T12:48:17Z</DateUtc></StartTime><FrequencyChanges><FrequencyChange><Frequency dt:dt=""r8"">10000000</Frequency><Timestamp dt:dt=""r8"">2837742858598</Timestamp><Current dt:dt=""r8"">0</Current><DateUtc dt:dt=""string"">2023-12-15T12:48:17Z</DateUtc></FrequencyChange></FrequencyChanges></Clock>\n",2.0.10.252,2.0.10.356,2.0.10.356,Professional,1.0.0.6
TrialProc,,List2,,,,,,,999,3,997,997,682,3,0,,2,,,,,,,,,,,,,,,,,,,,,,,,,,,,,7,1,7,,,,,,,,,,DelayDiscountingTitrated,12-15-2023,07:48:17,,3054,1,19,DelayDiscountingTitrated-3054-1,-1228538242,1,60.018,"<?xml version=""1.0""?>\n<Clock xmlns:dt=""urn:schemas-microsoft-com:datatypes""><Description dt:dt=""string"">E-Prime Primary Realtime Clock</Description><StartTime><Timestamp dt:dt=""int"">0</Timestamp><DateUtc dt:dt=""string"">2023-12-15T12:48:17Z</DateUtc></StartTime><FrequencyChanges><FrequencyChange><Frequency dt:dt=""r8"">10000000</Frequency><Timestamp dt:dt=""r8"">2837742858598</Timestamp><Current dt:dt=""r8"">0</Current><DateUtc dt:dt=""string"">2023-12-15T12:48:17Z</DateUtc></FrequencyChange></FrequencyChanges></Clock>\n",2.0.10.252,2.0.10.356,2.0.10.356,Professional,1.0.0.6
TrialProc,,List2,,,,,,,999,3,,999,813,3,0,,,,,,,,,,,,,,,,,,,,,,,,,,,,,,,8,1,8,,,,,,,,,,DelayDiscountingTitrated,12-15-2023,07:48:17,,3054,1,19,DelayDiscountingTitrated-3054-1,-1228538242,1,60.018,"<?xml version=""1.0""?>\n<Clock xmlns:dt=""urn:schemas-microsoft-com:datatypes""><Description dt:dt=""string"">E-Prime Primary Realtime Clock</Description><StartTime><Timestamp dt:dt=""int"">0</Timestamp><DateUtc dt:dt=""string"">2023-12-15T12:48:17Z</DateUtc></StartTime><FrequencyChanges><FrequencyChange><Frequency dt:dt=""r8"">10000000</Frequency><Timestamp dt:dt=""r8"">2837742858598</Timestamp><Current dt:dt=""r8"">0</Current><DateUtc dt:dt=""string"">2023-12-15T12:48:17Z</DateUtc></FrequencyChange></FrequencyChanges></Clock>\n",2.0.10.252,2.0.10.356,2.0.10.356,Professional,1.0.0.6
discount,,List3,,,,,,,,,,,,,,,,800,1 week,7,,,,,,,,,,,,,,,,,,,,,,,,,,,,,3,1,1,,,,,,,DelayDiscountingTitrated,12-15-2023,07:48:17,,3054,1,19,DelayDiscountingTitrated-3054-1,-1228538242,1,60.018,"<?xml version=""1.0""?>\n<Clock xmlns:dt=""urn:schemas-microsoft-com:datatypes""><Description dt:dt=""string"">E-Prime Primary Realtime Clock</Description><StartTime><Timestamp dt:dt=""int"">0</Timestamp><DateUtc dt:dt=""string"">2023-12-15T12:48:17Z</DateUtc></StartTime><FrequencyChanges><FrequencyChange><Frequency dt:dt=""r8"">10000000</Frequency><Timestamp dt:dt=""r8"">2837742858598</Timestamp><Current dt:dt=""r8"">0</Current><DateUtc dt:dt=""string"">2023-12-15T12:48:17Z</DateUtc></FrequencyChange></FrequencyChanges></Clock>\n",2.0.10.252,2.0.10.356,2.0.10.356,Professional,1.0.0.6
onewkproc,,List1,,,,,,,,,,,,,,,,,,,,,,1,1,5,5,,,,,,,,,,,,,,,,,,,,,,,,,,,,,,,DelayDiscountingTitrated,12-15-2023,07:48:17,,3054,1,19,DelayDiscountingTitrated-3054-1,-1228538242,1,60.018,"<?xml version=""1.0""?>\n<Clock xmlns:dt=""urn:schemas-microsoft-com:datatypes""><Description dt:dt=""string"">E-Prime Primary Realtime Clock</Description><StartTime><Timestamp dt:dt=""int"">0</Timestamp><DateUtc dt:dt=""string"">2023-12-15T12:48:17Z</DateUtc></StartTime><FrequencyChanges><FrequencyChange><Frequency dt:dt=""r8"">10000000</Frequency><Timestamp dt:dt=""r8"">2837742858598</Timestamp><Current dt:dt=""r8"">0</Current><DateUtc dt:dt=""string"">2023-12-15T12:48:17Z</DateUtc></FrequencyChange></FrequencyChanges></Clock>\n",2.0.10.252,2.0.10.356,2.0.10.356,Professional,1.0.0.6
Init2,,List10,,,5215,3,0,,900,3,800,,,,,,,,,,,,,,,,,,,,,,,,,,,,,,,,,,,,,,,,,1,1,1,,,,DelayDiscountingTitrated,12-15-2023,07:48:17,,3054,1,19,DelayDiscountingTitrated-3054-1,-1228538242,1,60.018,"<?xml version=""1.0""?>\n<Clock xmlns:dt=""urn:schemas-microsoft-com:datatypes""><Description dt:dt=""string"">E-Prime Primary Realtime Clock</Description><StartTime><Timestamp dt:dt=""int"">0</Timestamp><DateUtc dt:dt=""string"">2023-12-15T12:48:17Z</DateUtc></StartTime><FrequencyChanges><FrequencyChange><Frequency dt:dt=""r8"">10000000</Frequency><Timestamp dt:dt=""r8"">2837742858598</Timestamp><Current dt:dt=""r8"">0</Current><DateUtc dt:dt=""string"">2023-12-15T12:48:17Z</DateUtc></FrequencyChange></FrequencyChanges></Clock>\n",2.0.10.252,2.0.10.356,2.0.10.356,Professional,1.0.0.6
Proc2,,List10,,,,,,,950,3,900,900,2934,3,0,,50,,,,,,,,,,,,,,,,,,,,,,,,,,,,,,,,,,,2,1,2,,,,DelayDiscountingTitrated,12-15-2023,07:48:17,,3054,1,19,DelayDiscountingTitrated-3054-1,-1228538242,1,60.018,"<?xml version=""1.0""?>\n<Clock xmlns:dt=""urn:schemas-microsoft-com:datatypes""><Description dt:dt=""string"">E-Prime Primary Realtime Clock</Description><StartTime><Timestamp dt:dt=""int"">0</Timestamp><DateUtc dt:dt=""string"">2023-12-15T12:48:17Z</DateUtc></StartTime><FrequencyChanges><FrequencyChange><Frequency dt:dt=""r8"">10000000</Frequency><Timestamp dt:dt=""r8"">2837742858598</Timestamp><Current dt:dt=""r8"">0</Current><DateUtc dt:dt=""string"">2023-12-15T12:48:17Z</DateUtc></FrequencyChange></FrequencyChanges></Clock>\n",2.0.10.252,2.0.10.356,2.0.10.356,Professional,1.0.0.6
Proc2,,List10,,,,,,,975,3,950,950,696,3,0,,25,,,,,,,,,,,,,,,,,,,,,,,,,,,,,,,,,,,3,1,3,,,,DelayDiscountingTitrated,12-15-2023,07:48:17,,3054,1,19,DelayDiscountingTitrated-3054-1,-1228538242,1,60.018,"<?xml version=""1.0""?>\n<Clock xmlns:dt=""urn:schemas-microsoft-com:datatypes""><Description dt:dt=""string"">E-Prime Primary Realtime Clock</Description><StartTime><Timestamp dt:dt=""int"">0</Timestamp><DateUtc dt:dt=""string"">2023-12-15T12:48:17Z</DateUtc></StartTime><FrequencyChanges><FrequencyChange><Frequency dt:dt=""r8"">10000000</Frequency><Timestamp dt:dt=""r8"">2837742858598</Timestamp><Current dt:dt=""r8"">0</Current><DateUtc dt:dt=""string"">2023-12-15T12:48:17Z</DateUtc></FrequencyChange></FrequencyChanges></Clock>\n",2.0.10.252,2.0.10.356,2.0.10.356,Professional,1.0.0.6
Proc2,,List10,,,,,,,987,3,975,975,314,3,0,,12,,,,,,,,,,,,,,,,,,,,,,,,,,,,,,,,,,,4,1,4,,,,DelayDiscountingTitrated,12-15-2023,07:48:17,,3054,1,19,DelayDiscountingTitrated-3054-1,-1228538242,1,60.018,"<?xml version=""1.0""?>\n<Clock xmlns:dt=""urn:schemas-microsoft-com:datatypes""><Description dt:dt=""string"">E-Prime Primary Realtime Clock</Description><StartTime><Timestamp dt:dt=""int"">0</Timestamp><DateUtc dt:dt=""string"">2023-12-15T12:48:17Z</DateUtc></StartTime><FrequencyChanges><FrequencyChange><Frequency dt:dt=""r8"">10000000</Frequency><Timestamp dt:dt=""r8"">2837742858598</Timestamp><Current dt:dt=""r8"">0</Current><DateUtc dt:dt=""string"">2023-12-15T12:48:17Z</DateUtc></FrequencyChange></FrequencyChanges></Clock>\n",2.0.10.252,2.0.10.356,2.0.10.356,Professional,1.0.0.6
Proc2,,List10,,,,,,,993,3,987,987,548,3,0,,6,,,,,,,,,,,,,,,,,,,,,,,,,,,,,,,,,,,5,1,5,,,,DelayDiscountingTitrated,12-15-2023,07:48:17,,3054,1,19,DelayDiscountingTitrated-3054-1,-1228538242,1,60.018,"<?xml version=""1.0""?>\n<Clock xmlns:dt=""urn:schemas-microsoft-com:datatypes""><Description dt:dt=""string"">E-Prime Primary Realtime Clock</Description><StartTime><Timestamp dt:dt=""int"">0</Timestamp><DateUtc dt:dt=""string"">2023-12-15T12:48:17Z</DateUtc></StartTime><FrequencyChanges><FrequencyChange><Frequency dt:dt=""r8"">10000000</Frequency><Timestamp dt:dt=""r8"">2837742858598</Timestamp><Current dt:dt=""r8"">0</Current><DateUtc dt:dt=""string"">2023-12-15T12:48:17Z</DateUtc></FrequencyChange></FrequencyChanges></Clock>\n",2.0.10.252,2.0.10.356,2.0.10.356,Professional,1.0.0.6
Proc2,,List10,,,,,,,997,3,993,993,61,3,0,,4,,,,,,,,,,,,,,,,,,,,,,,,,,,,,,,,,,,6,1,6,,,,DelayDiscountingTitrated,12-15-2023,07:48:17,,3054,1,19,DelayDiscountingTitrated-3054-1,-1228538242,1,60.018,"<?xml version=""1.0""?>\n<Clock xmlns:dt=""urn:schemas-microsoft-com:datatypes""><Description dt:dt=""string"">E-Prime Primary Realtime Clock</Description><StartTime><Timestamp dt:dt=""int"">0</Timestamp><DateUtc dt:dt=""string"">2023-12-15T12:48:17Z</DateUtc></StartTime><FrequencyChanges><FrequencyChange><Frequency dt:dt=""r8"">10000000</Frequency><Timestamp dt:dt=""r8"">2837742858598</Timestamp><Current dt:dt=""r8"">0</Current><DateUtc dt:dt=""string"">2023-12-15T12:48:17Z</DateUtc></FrequencyChange></FrequencyChanges></Clock>\n",2.0.10.252,2.0.10.356,2.0.10.356,Professional,1.0.0.6
Proc2,,List10,,,,,,,999,3,997,997,80,3,0,,2,,,,,,,,,,,,,,,,,,,,,,,,,,,,,,,,,,,7,1,7,,,,DelayDiscountingTitrated,12-15-2023,07:48:17,,3054,1,19,DelayDiscountingTitrated-3054-1,-1228538242,1,60.018,"<?xml version=""1.0""?>\n<Clock xmlns:dt=""urn:schemas-microsoft-com:datatypes""><Description dt:dt=""string"">E-Prime Primary Realtime Clock</Description><StartTime><Timestamp dt:dt=""int"">0</Timestamp><DateUtc dt:dt=""string"">2023-12-15T12:48:17Z</DateUtc></StartTime><FrequencyChanges><FrequencyChange><Frequency dt:dt=""r8"">10000000</Frequency><Timestamp dt:dt=""r8"">2837742858598</Timestamp><Current dt:dt=""r8"">0</Current><DateUtc dt:dt=""string"">2023-12-15T12:48:17Z</DateUtc></FrequencyChange></FrequencyChanges></Clock>\n",2.0.10.252,2.0.10.356,2.0.10.356,Professional,1.0.0.6
Proc2,,List10,,,,,,,999,3,,999,379,3,0,,,,,,,,,,,,,,,,,,,,,,,,,,,,,,,,,,,,,8,1,8,,,,DelayDiscountingTitrated,12-15-2023,07:48:17,,3054,1,19,DelayDiscountingTitrated-3054-1,-1228538242,1,60.018,"<?xml version=""1.0""?>\n<Clock xmlns:dt=""urn:schemas-microsoft-com:datatypes""><Description dt:dt=""string"">E-Prime Primary Realtime Clock</Description><StartTime><Timestamp dt:dt=""int"">0</Timestamp><DateUtc dt:dt=""string"">2023-12-15T12:48:17Z</DateUtc></StartTime><FrequencyChanges><FrequencyChange><Frequency dt:dt=""r8"">10000000</Frequency><Timestamp dt:dt=""r8"">2837742858598</Timestamp><Current dt:dt=""r8"">0</Current><DateUtc dt:dt=""string"">2023-12-15T12:48:17Z</DateUtc></FrequencyChange></FrequencyChanges></Clock>\n",2.0.10.252,2.0.10.356,2.0.10.356,Professional,1.0.0.6
discount2,,List5,,,,,,,,,,,,,,,,800,6 month,180,,,,,,,,,,,,,,,,,,,,,,,,,,,,,,,,,,,3,1,1,DelayDiscountingTitrated,12-15-2023,07:48:17,,3054,1,19,DelayDiscountingTitrated-3054-1,-1228538242,1,60.018,"<?xml version=""1.0""?>\n<Clock xmlns:dt=""urn:schemas-microsoft-com:datatypes""><Description dt:dt=""string"">E-Prime Primary Realtime Clock</Description><StartTime><Timestamp dt:dt=""int"">0</Timestamp><DateUtc dt:dt=""string"">2023-12-15T12:48:17Z</DateUtc></StartTime><FrequencyChanges><FrequencyChange><Frequency dt:dt=""r8"">10000000</Frequency><Timestamp dt:dt=""r8"">2837742858598</Timestamp><Current dt:dt=""r8"">0</Current><DateUtc dt:dt=""string"">2023-12-15T12:48:17Z</DateUtc></FrequencyChange></FrequencyChanges></Clock>\n",2.0.10.252,2.0.10.356,2.0.10.356,Professional,1.0.0.6
sixmthproc,,List1,,,,,,,,,,,,,,,,,,,,,,3,1,6,6,,,,,,,,,,,,,,,,,,,,,,,,,,,,,,,DelayDiscountingTitrated,12-15-2023,07:48:17,,3054,1,19,DelayDiscountingTitrated-3054-1,-1228538242,1,60.018,"<?xml version=""1.0""?>\n<Clock xmlns:dt=""urn:schemas-microsoft-com:datatypes""><Description dt:dt=""string"">E-Prime Primary Realtime Clock</Description><StartTime><Timestamp dt:dt=""int"">0</Timestamp><DateUtc dt:dt=""string"">2023-12-15T12:48:17Z</DateUtc></StartTime><FrequencyChanges><FrequencyChange><Frequency dt:dt=""r8"">10000000</Frequency><Timestamp dt:dt=""r8"">2837742858598</Timestamp><Current dt:dt=""r8"">0</Current><DateUtc dt:dt=""string"">2023-12-15T12:48:17Z</DateUtc></FrequencyChange></FrequencyChanges></Clock>\n",2.0.10.252,2.0.10.356,2.0.10.356,Professional,1.0.0.6
,,,,,,,,,,,,,,,,,,,,,,,,,,,,,,,,,,,,,,,,,,,,,,,,,,,,,,,,,,DelayDiscountingTitrated,12-15-2023,07:48:17,,3054,1,19,DelayDiscountingTitrated-3054-1,-1228538242,1,60.018,"<?xml version=""1.0""?>\n<Clock xmlns:dt=""urn:schemas-microsoft-com:datatypes""><Description dt:dt=""string"">E-Prime Primary Realtime Clock</Description><StartTime><Timestamp dt:dt=""int"">0</Timestamp><DateUtc dt:dt=""string"">2023-12-15T12:48:17Z</DateUtc></StartTime><FrequencyChanges><FrequencyChange><Frequency dt:dt=""r8"">10000000</Frequency><Timestamp dt:dt=""r8"">2837742858598</Timestamp><Current dt:dt=""r8"">0</Current><DateUtc dt:dt=""string"">2023-12-15T12:48:17Z</DateUtc></FrequencyChange></FrequencyChanges></Clock>\n",2.0.10.252,2.0.10.356,2.0.10.356,Professional,1.0.0.6
