Procedure,List2,Running,List2.Cycle,List2.Sample,Slide2.RT,Slide2.RESP,Slide4.RT,Slide4.RESP,immed3,respprev,prevalue,imstring,Slide1.RT,Slide1.RESP,Slide5.RT,Slide5.RESP,immed5,immed,delaypd,List3,timedays,List3.Cycle,List3.Sample,List1,List1.Cycle,List1.Sample,roundnumber,List10,List10.Cycle,List10.Sample,List5,List5.Cycle,List5.Sample,List13,List13.Cycle,List13.Sample,List8,List8.Cycle,List8.Sample,List12,List12.Cycle,List12.Sample,List7,List7.Cycle,List7.Sample,List11,List11.Cycle,List11.Sample,List6,List6.Cycle,List6.Sample,List9,List9.Cycle,List9.Sample,List4,List4.Cycle,List4.Sample,Experiment,SessionDate,SessionTime,SessionStartDateTimeUtc,Subject,Session,Age,DataFile.Basename,RandomSeed,Group,Display.RefreshRate,Clock.Information,StudioVersion,RuntimeVersion,RuntimeVersionExpected,RuntimeCapabilities,ExperimentVersion
TrialProcInit,1,List2,1,1,8120,3,0,,900,3,800,,,,,,,,,,,,,,,,,,,,,,,,,,,,,,,,,,,,,,,,,,,,,,,DelayDiscountingTitrated,12-16-2023,08:49:44,12/16/2023 1:49:44 PM,3063,1,18,DelayDiscountingTitrated-3063-1,1987288626,1,60.017,"<?xml version=""1.0""?>\n<Clock xmlns:dt=""urn:schemas-microsoft-com:datatypes""><Description dt:dt=""string"">E-Prime Primary Realtime Clock</Description><StartTime><Timestamp dt:dt=""int"">0</Timestamp><DateUtc dt:dt=""string"">2023-12-16T13:49:44Z</DateUtc></StartTime><FrequencyChanges><FrequencyChange><Frequency dt:dt=""r8"">10000000</Frequency><Timestamp dt:dt=""r8"">3738606789247</Timestamp><Current dt:dt=""r8"">0</Current><DateUtc dt:dt=""string"">2023-12-16T13:49:44Z</DateUtc></FrequencyChange></FrequencyChanges></Clock>\n",2.0.10.252,2.0.10.356,2.0.10.356,Professional,1.0.0.6
TrialProc,2,List2,1,2,,,,,950,3,900,900,3267,3,0,,50,,,,,,,,,,,,,,,,,,,,,,,,,,,,,,,,,,,,,,,,,DelayDiscountingTitrated,12-16-2023,08:49:44,12/16/2023 1:49:44 PM,3063,1,18,DelayDiscountingTitrated-3063-1,1987288626,1,60.017,"<?xml version=""1.0""?>\n<Clock xmlns:dt=""urn:schemas-microsoft-com:datatypes""><Description dt:dt=""string"">E-Prime Primary Realtime Clock</Description><StartTime><Timestamp dt:dt=""int"">0</Timestamp><DateUtc dt:dt=""string"">2023-12-16T13:49:44Z</DateUtc></StartTime><FrequencyChanges><FrequencyChange><Frequency dt:dt=""r8"">10000000</Frequency><Timestamp dt:dt=""r8"">3738606789247</Timestamp><Current dt:dt=""r8"">0</Current><DateUtc dt:dt=""string"">2023-12-16T13:49:44Z</DateUtc></FrequencyChange></FrequencyChanges></Clock>\n",2.0.10.252,2.0.10.356,2.0.10.356,Professional,1.0.0.6
TrialProc,3,List2,1,3,,,,,975,3,950,950,3296,3,0,,25,,,,,,,,,,,,,,,,,,,,,,,,,,,,,,,,,,,,,,,,,DelayDiscountingTitrated,12-16-2023,08:49:44,12/16/2023 1:49:44 PM,3063,1,18,DelayDiscountingTitrated-3063-1,1987288626,1,60.017,"<?xml version=""1.0""?>\n<Clock xmlns:dt=""urn:schemas-microsoft-com:datatypes""><Description dt:dt=""string"">E-Prime Primary Realtime Clock</Description><StartTime><Timestamp dt:dt=""int"">0</Timestamp><DateUtc dt:dt=""string"">2023-12-16T13:49:44Z</DateUtc></StartTime><FrequencyChanges><FrequencyChange><Frequency dt:dt=""r8"">10000000</Frequency><Timestamp dt:dt=""r8"">3738606789247</Timestamp><Current dt:dt=""r8"">0</Current><DateUtc dt:dt=""string"">2023-12-16T13:49:44Z</DateUtc></FrequencyChange></FrequencyChanges></Clock>\n",2.0.10.252,2.0.10.356,2.0.10.356,Professional,1.0.0.6
TrialProc,4,List2,1,4,,,,,987,3,975,975,4211,3,0,,12,,,,,,,,,,,,,,,,,,,,,,,,,,,,,,,,,,,,,,,,,DelayDiscountingTitrated,12-16-2023,08:49:44,12/16/2023 1:49:44 PM,3063,1,18,DelayDiscountingTitrated-3063-1,1987288626,1,60.017,"<?xml version=""1.0""?>\n<Clock xmlns:dt=""urn:schemas-microsoft-com:datatypes""><Description dt:dt=""string"">E-Prime Primary Realtime Clock</Description><StartTime><Timestamp dt:dt=""int"">0</Timestamp><DateUtc dt:dt=""string"">2023-12-16T13:49:44Z</DateUtc></StartTime><FrequencyChanges><FrequencyChange><Frequency dt:dt=""r8"">10000000</Frequency><Timestamp dt:dt=""r8"">3738606789247</Timestamp><Current dt:dt=""r8"">0</Current><DateUtc dt:dt=""string"">2023-12-16T13:49:44Z</DateUtc></FrequencyChange></FrequencyChanges></Clock>\n",2.0.10.252,2.0.10.356,2.0.10.356,Professional,1.0.0.6
TrialProc,5,List2,1,5,,,,,993,3,987,987,1618,3,0,,6,,,,,,,,,,,,,,,,,,,,,,,,,,,,,,,,,,,,,,,,,DelayDiscountingTitrated,12-16-2023,08:49:44,12/16/2023 1:49:44 PM,3063,1,18,DelayDiscountingTitrated-3063-1,1987288626,1,60.017,"<?xml version=""1.0""?>\n<Clock xmlns:dt=""urn:schemas-microsoft-com:datatypes""><Description dt:dt=""string"">E-Prime Primary Realtime Clock</Description><StartTime><Timestamp dt:dt=""int"">0</Timestamp><DateUtc dt:dt=""string"">2023-12-16T13:49:44Z</DateUtc></StartTime><FrequencyChanges><FrequencyChange><Frequency dt:dt=""r8"">10000000</Frequency><Timestamp dt:dt=""r8"">3738606789247</Timestamp><Current dt:dt=""r8"">0</Current><DateUtc dt:dt=""string"">2023-12-16T13:49:44Z</DateUtc></FrequencyChange></FrequencyChanges></Clock>\n",2.0.10.252,2.0.10.356,2.0.10.356,Professional,1.0.0.6
TrialProc,6,List2,1,6,,,,,990,1,993,993,6440,1,0,,3,,,,,,,,,,,,,,,,,,,,,,,,,,,,,,,,,,,,,,,,,DelayDiscountingTitrated,12-16-2023,08:49:44,12/16/2023 1:49:44 PM,3063,1,18,DelayDiscountingTitrated-3063-1,1987288626,1,60.017,"<?xml version=""1.0""?>\n<Clock xmlns:dt=""urn:schemas-microsoft-com:datatypes""><Description dt:dt=""string"">E-Prime Primary Realtime Clock</Description><StartTime><Timestamp dt:dt=""int"">0</Timestamp><DateUtc dt:dt=""string"">2023-12-16T13:49:44Z</DateUtc></StartTime><FrequencyChanges><FrequencyChange><Frequency dt:dt=""r8"">10000000</Frequency><Timestamp dt:dt=""r8"">3738606789247</Timestamp><Current dt:dt=""r8"">0</Current><DateUtc dt:dt=""string"">2023-12-16T13:49:44Z</DateUtc></FrequencyChange></FrequencyChanges></Clock>\n",2.0.10.252,2.0.10.356,2.0.10.356,Professional,1.0.0.6
TrialProc,7,List2,1,7,,,,,988,1,990,990,3863,1,0,,2,,,,,,,,,,,,,,,,,,,,,,,,,,,,,,,,,,,,,,,,,DelayDiscountingTitrated,12-16-2023,08:49:44,12/16/2023 1:49:44 PM,3063,1,18,DelayDiscountingTitrated-3063-1,1987288626,1,60.017,"<?xml version=""1.0""?>\n<Clock xmlns:dt=""urn:schemas-microsoft-com:datatypes""><Description dt:dt=""string"">E-Prime Primary Realtime Clock</Description><StartTime><Timestamp dt:dt=""int"">0</Timestamp><DateUtc dt:dt=""string"">2023-12-16T13:49:44Z</DateUtc></StartTime><FrequencyChanges><FrequencyChange><Frequency dt:dt=""r8"">10000000</Frequency><Timestamp dt:dt=""r8"">3738606789247</Timestamp><Current dt:dt=""r8"">0</Current><DateUtc dt:dt=""string"">2023-12-16T13:49:44Z</DateUtc></FrequencyChange></FrequencyChanges></Clock>\n",2.0.10.252,2.0.10.356,2.0.10.356,Professional,1.0.0.6
TrialProc,8,List2,1,8,,,,,989,3,988,988,1228,3,0,,1,,,,,,,,,,,,,,,,,,,,,,,,,,,,,,,,,,,,,,,,,DelayDiscountingTitrated,12-16-2023,08:49:44,12/16/2023 1:49:44 PM,3063,1,18,DelayDiscountingTitrated-3063-1,1987288626,1,60.017,"<?xml version=""1.0""?>\n<Clock xmlns:dt=""urn:schemas-microsoft-com:datatypes""><Description dt:dt=""string"">E-Prime Primary Realtime Clock</Description><StartTime><Timestamp dt:dt=""int"">0</Timestamp><DateUtc dt:dt=""string"">2023-12-16T13:49:44Z</DateUtc></StartTime><FrequencyChanges><FrequencyChange><Frequency dt:dt=""r8"">10000000</Frequency><Timestamp dt:dt=""r8"">3738606789247</Timestamp><Current dt:dt=""r8"">0</Current><DateUtc dt:dt=""string"">2023-12-16T13:49:44Z</DateUtc></FrequencyChange></FrequencyChanges></Clock>\n",2.0.10.252,2.0.10.356,2.0.10.356,Professional,1.0.0.6
TrialProc,9,List2,1,9,,,,,989,3,988,989,969,3,0,,,,,,,,,,,,,,,,,,,,,,,,,,,,,,,,,,,,,,,,,,,DelayDiscountingTitrated,12-16-2023,08:49:44,12/16/2023 1:49:44 PM,3063,1,18,DelayDiscountingTitrated-3063-1,1987288626,1,60.017,"<?xml version=""1.0""?>\n<Clock xmlns:dt=""urn:schemas-microsoft-com:datatypes""><Description dt:dt=""string"">E-Prime Primary Realtime Clock</Description><StartTime><Timestamp dt:dt=""int"">0</Timestamp><DateUtc dt:dt=""string"">2023-12-16T13:49:44Z</DateUtc></StartTime><FrequencyChanges><FrequencyChange><Frequency dt:dt=""r8"">10000000</Frequency><Timestamp dt:dt=""r8"">3738606789247</Timestamp><Current dt:dt=""r8"">0</Current><DateUtc dt:dt=""string"">2023-12-16T13:49:44Z</DateUtc></FrequencyChange></FrequencyChanges></Clock>\n",2.0.10.252,2.0.10.356,2.0.10.356,Professional,1.0.0.6
discount,,List3,,,,,,,,,,,,,,,,800,1 week,3,7,1,1,,,,,,,,,,,,,,,,,,,,,,,,,,,,,,,,,,,DelayDiscountingTitrated,12-16-2023,08:49:44,12/16/2023 1:49:44 PM,3063,1,18,DelayDiscountingTitrated-3063-1,1987288626,1,60.017,"<?xml version=""1.0""?>\n<Clock xmlns:dt=""urn:schemas-microsoft-com:datatypes""><Description dt:dt=""string"">E-Prime Primary Realtime Clock</Description><StartTime><Timestamp dt:dt=""int"">0</Timestamp><DateUtc dt:dt=""string"">2023-12-16T13:49:44Z</DateUtc></StartTime><FrequencyChanges><FrequencyChange><Frequency dt:dt=""r8"">10000000</Frequency><Timestamp dt:dt=""r8"">3738606789247</Timestamp><Current dt:dt=""r8"">0</Current><DateUtc dt:dt=""string"">2023-12-16T13:49:44Z</DateUtc></FrequencyChange></FrequencyChanges></Clock>\n",2.0.10.252,2.0.10.356,2.0.10.356,Professional,1.0.0.6
onewkproc,,List1,,,,,,,,,,,,,,,,,,,,,,1,1,1,1,,,,,,,,,,,,,,,,,,,,,,,,,,,,,,,DelayDiscountingTitrated,12-16-2023,08:49:44,12/16/2023 1:49:44 PM,3063,1,18,DelayDiscountingTitrated-3063-1,1987288626,1,60.017,"<?xml version=""1.0""?>\n<Clock xmlns:dt=""urn:schemas-microsoft-com:datatypes""><Description dt:dt=""string"">E-Prime Primary Realtime Clock</Description><StartTime><Timestamp dt:dt=""int"">0</Timestamp><DateUtc dt:dt=""string"">2023-12-16T13:49:44Z</DateUtc></StartTime><FrequencyChanges><FrequencyChange><Frequency dt:dt=""r8"">10000000</Frequency><Timestamp dt:dt=""r8"">3738606789247</Timestamp><Current dt:dt=""r8"">0</Current><DateUtc dt:dt=""string"">2023-12-16T13:49:44Z</DateUtc></FrequencyChange></FrequencyChanges></Clock>\n",2.0.10.252,2.0.10.356,2.0.10.356,Professional,1.0.0.6
Init2,,List10,,,6020,1,0,,400,1,800,,,,,,,,,,,,,,,,,1,1,1,,,,,,,,,,,,,,,,,,,,,,,,,,,,DelayDiscountingTitrated,12-16-2023,08:49:44,12/16/2023 1:49:44 PM,3063,1,18,DelayDiscountingTitrated-3063-1,1987288626,1,60.017,"<?xml version=""1.0""?>\n<Clock xmlns:dt=""urn:schemas-microsoft-com:datatypes""><Description dt:dt=""string"">E-Prime Primary Realtime Clock</Description><StartTime><Timestamp dt:dt=""int"">0</Timestamp><DateUtc dt:dt=""string"">2023-12-16T13:49:44Z</DateUtc></StartTime><FrequencyChanges><FrequencyChange><Frequency dt:dt=""r8"">10000000</Frequency><Timestamp dt:dt=""r8"">3738606789247</Timestamp><Current dt:dt=""r8"">0</Current><DateUtc dt:dt=""string"">2023-12-16T13:49:44Z</DateUtc></FrequencyChange></FrequencyChanges></Clock>\n",2.0.10.252,2.0.10.356,2.0.10.356,Professional,1.0.0.6
Proc2,,List10,,,,,,,200,1,400,400,5940,1,0,,200,,,,,,,,,,,2,1,2,,,,,,,,,,,,,,,,,,,,,,,,,,,,DelayDiscountingTitrated,12-16-2023,08:49:44,12/16/2023 1:49:44 PM,3063,1,18,DelayDiscountingTitrated-3063-1,1987288626,1,60.017,"<?xml version=""1.0""?>\n<Clock xmlns:dt=""urn:schemas-microsoft-com:datatypes""><Description dt:dt=""string"">E-Prime Primary Realtime Clock</Description><StartTime><Timestamp dt:dt=""int"">0</Timestamp><DateUtc dt:dt=""string"">2023-12-16T13:49:44Z</DateUtc></StartTime><FrequencyChanges><FrequencyChange><Frequency dt:dt=""r8"">10000000</Frequency><Timestamp dt:dt=""r8"">3738606789247</Timestamp><Current dt:dt=""r8"">0</Current><DateUtc dt:dt=""string"">2023-12-16T13:49:44Z</DateUtc></FrequencyChange></FrequencyChanges></Clock>\n",2.0.10.252,2.0.10.356,2.0.10.356,Professional,1.0.0.6
Proc2,,List10,,,,,,,100,1,200,200,5391,1,0,,100,,,,,,,,,,,3,1,3,,,,,,,,,,,,,,,,,,,,,,,,,,,,DelayDiscountingTitrated,12-16-2023,08:49:44,12/16/2023 1:49:44 PM,3063,1,18,DelayDiscountingTitrated-3063-1,1987288626,1,60.017,"<?xml version=""1.0""?>\n<Clock xmlns:dt=""urn:schemas-microsoft-com:datatypes""><Description dt:dt=""string"">E-Prime Primary Realtime Clock</Description><StartTime><Timestamp dt:dt=""int"">0</Timestamp><DateUtc dt:dt=""string"">2023-12-16T13:49:44Z</DateUtc></StartTime><FrequencyChanges><FrequencyChange><Frequency dt:dt=""r8"">10000000</Frequency><Timestamp dt:dt=""r8"">3738606789247</Timestamp><Current dt:dt=""r8"">0</Current><DateUtc dt:dt=""string"">2023-12-16T13:49:44Z</DateUtc></FrequencyChange></FrequencyChanges></Clock>\n",2.0.10.252,2.0.10.356,2.0.10.356,Professional,1.0.0.6
Proc2,,List10,,,,,,,150,3,100,100,2935,3,0,,50,,,,,,,,,,,4,1,4,,,,,,,,,,,,,,,,,,,,,,,,,,,,DelayDiscountingTitrated,12-16-2023,08:49:44,12/16/2023 1:49:44 PM,3063,1,18,DelayDiscountingTitrated-3063-1,1987288626,1,60.017,"<?xml version=""1.0""?>\n<Clock xmlns:dt=""urn:schemas-microsoft-com:datatypes""><Description dt:dt=""string"">E-Prime Primary Realtime Clock</Description><StartTime><Timestamp dt:dt=""int"">0</Timestamp><DateUtc dt:dt=""string"">2023-12-16T13:49:44Z</DateUtc></StartTime><FrequencyChanges><FrequencyChange><Frequency dt:dt=""r8"">10000000</Frequency><Timestamp dt:dt=""r8"">3738606789247</Timestamp><Current dt:dt=""r8"">0</Current><DateUtc dt:dt=""string"">2023-12-16T13:49:44Z</DateUtc></FrequencyChange></FrequencyChanges></Clock>\n",2.0.10.252,2.0.10.356,2.0.10.356,Professional,1.0.0.6
Proc2,,List10,,,,,,,125,1,150,150,1962,1,0,,25,,,,,,,,,,,5,1,5,,,,,,,,,,,,,,,,,,,,,,,,,,,,DelayDiscountingTitrated,12-16-2023,08:49:44,12/16/2023 1:49:44 PM,3063,1,18,DelayDiscountingTitrated-3063-1,1987288626,1,60.017,"<?xml version=""1.0""?>\n<Clock xmlns:dt=""urn:schemas-microsoft-com:datatypes""><Description dt:dt=""string"">E-Prime Primary Realtime Clock</Description><StartTime><Timestamp dt:dt=""int"">0</Timestamp><DateUtc dt:dt=""string"">2023-12-16T13:49:44Z</DateUtc></StartTime><FrequencyChanges><FrequencyChange><Frequency dt:dt=""r8"">10000000</Frequency><Timestamp dt:dt=""r8"">3738606789247</Timestamp><Current dt:dt=""r8"">0</Current><DateUtc dt:dt=""string"">2023-12-16T13:49:44Z</DateUtc></FrequencyChange></FrequencyChanges></Clock>\n",2.0.10.252,2.0.10.356,2.0.10.356,Professional,1.0.0.6
Proc2,,List10,,,,,,,113,1,125,125,4817,1,0,,12,,,,,,,,,,,6,1,6,,,,,,,,,,,,,,,,,,,,,,,,,,,,DelayDiscountingTitrated,12-16-2023,08:49:44,12/16/2023 1:49:44 PM,3063,1,18,DelayDiscountingTitrated-3063-1,1987288626,1,60.017,"<?xml version=""1.0""?>\n<Clock xmlns:dt=""urn:schemas-microsoft-com:datatypes""><Description dt:dt=""string"">E-Prime Primary Realtime Clock</Description><StartTime><Timestamp dt:dt=""int"">0</Timestamp><DateUtc dt:dt=""string"">2023-12-16T13:49:44Z</DateUtc></StartTime><FrequencyChanges><FrequencyChange><Frequency dt:dt=""r8"">10000000</Frequency><Timestamp dt:dt=""r8"">3738606789247</Timestamp><Current dt:dt=""r8"">0</Current><DateUtc dt:dt=""string"">2023-12-16T13:49:44Z</DateUtc></FrequencyChange></FrequencyChanges></Clock>\n",2.0.10.252,2.0.10.356,2.0.10.356,Professional,1.0.0.6
Proc2,,List10,,,,,,,119,3,113,113,4001,3,0,,6,,,,,,,,,,,7,1,7,,,,,,,,,,,,,,,,,,,,,,,,,,,,DelayDiscountingTitrated,12-16-2023,08:49:44,12/16/2023 1:49:44 PM,3063,1,18,DelayDiscountingTitrated-3063-1,1987288626,1,60.017,"<?xml version=""1.0""?>\n<Clock xmlns:dt=""urn:schemas-microsoft-com:datatypes""><Description dt:dt=""string"">E-Prime Primary Realtime Clock</Description><StartTime><Timestamp dt:dt=""int"">0</Timestamp><DateUtc dt:dt=""string"">2023-12-16T13:49:44Z</DateUtc></StartTime><FrequencyChanges><FrequencyChange><Frequency dt:dt=""r8"">10000000</Frequency><Timestamp dt:dt=""r8"">3738606789247</Timestamp><Current dt:dt=""r8"">0</Current><DateUtc dt:dt=""string"">2023-12-16T13:49:44Z</DateUtc></FrequencyChange></FrequencyChanges></Clock>\n",2.0.10.252,2.0.10.356,2.0.10.356,Professional,1.0.0.6
Proc2,,List10,,,,,,,122,3,119,119,1720,3,0,,3,,,,,,,,,,,8,1,8,,,,,,,,,,,,,,,,,,,,,,,,,,,,DelayDiscountingTitrated,12-16-2023,08:49:44,12/16/2023 1:49:44 PM,3063,1,18,DelayDiscountingTitrated-3063-1,1987288626,1,60.017,"<?xml version=""1.0""?>\n<Clock xmlns:dt=""urn:schemas-microsoft-com:datatypes""><Description dt:dt=""string"">E-Prime Primary Realtime Clock</Description><StartTime><Timestamp dt:dt=""int"">0</Timestamp><DateUtc dt:dt=""string"">2023-12-16T13:49:44Z</DateUtc></StartTime><FrequencyChanges><FrequencyChange><Frequency dt:dt=""r8"">10000000</Frequency><Timestamp dt:dt=""r8"">3738606789247</Timestamp><Current dt:dt=""r8"">0</Current><DateUtc dt:dt=""string"">2023-12-16T13:49:44Z</DateUtc></FrequencyChange></FrequencyChanges></Clock>\n",2.0.10.252,2.0.10.356,2.0.10.356,Professional,1.0.0.6
Proc2,,List10,,,,,,,124,3,122,122,1763,3,0,,2,,,,,,,,,,,9,1,9,,,,,,,,,,,,,,,,,,,,,,,,,,,,DelayDiscountingTitrated,12-16-2023,08:49:44,12/16/2023 1:49:44 PM,3063,1,18,DelayDiscountingTitrated-3063-1,1987288626,1,60.017,"<?xml version=""1.0""?>\n<Clock xmlns:dt=""urn:schemas-microsoft-com:datatypes""><Description dt:dt=""string"">E-Prime Primary Realtime Clock</Description><StartTime><Timestamp dt:dt=""int"">0</Timestamp><DateUtc dt:dt=""string"">2023-12-16T13:49:44Z</DateUtc></StartTime><FrequencyChanges><FrequencyChange><Frequency dt:dt=""r8"">10000000</Frequency><Timestamp dt:dt=""r8"">3738606789247</Timestamp><Current dt:dt=""r8"">0</Current><DateUtc dt:dt=""string"">2023-12-16T13:49:44Z</DateUtc></FrequencyChange></FrequencyChanges></Clock>\n",2.0.10.252,2.0.10.356,2.0.10.356,Professional,1.0.0.6
Proc2,,List10,,,,,,,125,3,124,124,1435,3,0,,1,,,,,,,,,,,10,1,10,,,,,,,,,,,,,,,,,,,,,,,,,,,,DelayDiscountingTitrated,12-16-2023,08:49:44,12/16/2023 1:49:44 PM,3063,1,18,DelayDiscountingTitrated-3063-1,1987288626,1,60.017,"<?xml version=""1.0""?>\n<Clock xmlns:dt=""urn:schemas-microsoft-com:datatypes""><Description dt:dt=""string"">E-Prime Primary Realtime Clock</Description><StartTime><Timestamp dt:dt=""int"">0</Timestamp><DateUtc dt:dt=""string"">2023-12-16T13:49:44Z</DateUtc></StartTime><FrequencyChanges><FrequencyChange><Frequency dt:dt=""r8"">10000000</Frequency><Timestamp dt:dt=""r8"">3738606789247</Timestamp><Current dt:dt=""r8"">0</Current><DateUtc dt:dt=""string"">2023-12-16T13:49:44Z</DateUtc></FrequencyChange></FrequencyChanges></Clock>\n",2.0.10.252,2.0.10.356,2.0.10.356,Professional,1.0.0.6
Proc2,,List10,,,,,,,125,3,124,125,1672,3,0,,,,,,,,,,,,,11,1,11,,,,,,,,,,,,,,,,,,,,,,,,,,,,DelayDiscountingTitrated,12-16-2023,08:49:44,12/16/2023 1:49:44 PM,3063,1,18,DelayDiscountingTitrated-3063-1,1987288626,1,60.017,"<?xml version=""1.0""?>\n<Clock xmlns:dt=""urn:schemas-microsoft-com:datatypes""><Description dt:dt=""string"">E-Prime Primary Realtime Clock</Description><StartTime><Timestamp dt:dt=""int"">0</Timestamp><DateUtc dt:dt=""string"">2023-12-16T13:49:44Z</DateUtc></StartTime><FrequencyChanges><FrequencyChange><Frequency dt:dt=""r8"">10000000</Frequency><Timestamp dt:dt=""r8"">3738606789247</Timestamp><Current dt:dt=""r8"">0</Current><DateUtc dt:dt=""string"">2023-12-16T13:49:44Z</DateUtc></FrequencyChange></FrequencyChanges></Clock>\n",2.0.10.252,2.0.10.356,2.0.10.356,Professional,1.0.0.6
discount2,,List5,,,,,,,,,,,,,,,,800,6 month,,180,,,,,,,,,,3,1,1,,,,,,,,,,,,,,,,,,,,,,,,,DelayDiscountingTitrated,12-16-2023,08:49:44,12/16/2023 1:49:44 PM,3063,1,18,DelayDiscountingTitrated-3063-1,1987288626,1,60.017,"<?xml version=""1.0""?>\n<Clock xmlns:dt=""urn:schemas-microsoft-com:datatypes""><Description dt:dt=""string"">E-Prime Primary Realtime Clock</Description><StartTime><Timestamp dt:dt=""int"">0</Timestamp><DateUtc dt:dt=""string"">2023-12-16T13:49:44Z</DateUtc></StartTime><FrequencyChanges><FrequencyChange><Frequency dt:dt=""r8"">10000000</Frequency><Timestamp dt:dt=""r8"">3738606789247</Timestamp><Current dt:dt=""r8"">0</Current><DateUtc dt:dt=""string"">2023-12-16T13:49:44Z</DateUtc></FrequencyChange></FrequencyChanges></Clock>\n",2.0.10.252,2.0.10.356,2.0.10.356,Professional,1.0.0.6
sixmthproc,,List1,,,,,,,,,,,,,,,,,,,,,,3,1,2,2,,,,,,,,,,,,,,,,,,,,,,,,,,,,,,,DelayDiscountingTitrated,12-16-2023,08:49:44,12/16/2023 1:49:44 PM,3063,1,18,DelayDiscountingTitrated-3063-1,1987288626,1,60.017,"<?xml version=""1.0""?>\n<Clock xmlns:dt=""urn:schemas-microsoft-com:datatypes""><Description dt:dt=""string"">E-Prime Primary Realtime Clock</Description><StartTime><Timestamp dt:dt=""int"">0</Timestamp><DateUtc dt:dt=""string"">2023-12-16T13:49:44Z</DateUtc></StartTime><FrequencyChanges><FrequencyChange><Frequency dt:dt=""r8"">10000000</Frequency><Timestamp dt:dt=""r8"">3738606789247</Timestamp><Current dt:dt=""r8"">0</Current><DateUtc dt:dt=""string"">2023-12-16T13:49:44Z</DateUtc></FrequencyChange></FrequencyChanges></Clock>\n",2.0.10.252,2.0.10.356,2.0.10.356,Professional,1.0.0.6
Init5,,List13,,,5802,1,0,,100,1,200,,,,,,,,,,,,,,,,,,,,,,,1,1,1,,,,,,,,,,,,,,,,,,,,,,DelayDiscountingTitrated,12-16-2023,08:49:44,12/16/2023 1:49:44 PM,3063,1,18,DelayDiscountingTitrated-3063-1,1987288626,1,60.017,"<?xml version=""1.0""?>\n<Clock xmlns:dt=""urn:schemas-microsoft-com:datatypes""><Description dt:dt=""string"">E-Prime Primary Realtime Clock</Description><StartTime><Timestamp dt:dt=""int"">0</Timestamp><DateUtc dt:dt=""string"">2023-12-16T13:49:44Z</DateUtc></StartTime><FrequencyChanges><FrequencyChange><Frequency dt:dt=""r8"">10000000</Frequency><Timestamp dt:dt=""r8"">3738606789247</Timestamp><Current dt:dt=""r8"">0</Current><DateUtc dt:dt=""string"">2023-12-16T13:49:44Z</DateUtc></FrequencyChange></FrequencyChanges></Clock>\n",2.0.10.252,2.0.10.356,2.0.10.356,Professional,1.0.0.6
Proc5,,List13,,,,,,,50,1,100,100,1634,1,0,,50,,,,,,,,,,,,,,,,,2,1,2,,,,,,,,,,,,,,,,,,,,,,DelayDiscountingTitrated,12-16-2023,08:49:44,12/16/2023 1:49:44 PM,3063,1,18,DelayDiscountingTitrated-3063-1,1987288626,1,60.017,"<?xml version=""1.0""?>\n<Clock xmlns:dt=""urn:schemas-microsoft-com:datatypes""><Description dt:dt=""string"">E-Prime Primary Realtime Clock</Description><StartTime><Timestamp dt:dt=""int"">0</Timestamp><DateUtc dt:dt=""string"">2023-12-16T13:49:44Z</DateUtc></StartTime><FrequencyChanges><FrequencyChange><Frequency dt:dt=""r8"">10000000</Frequency><Timestamp dt:dt=""r8"">3738606789247</Timestamp><Current dt:dt=""r8"">0</Current><DateUtc dt:dt=""string"">2023-12-16T13:49:44Z</DateUtc></FrequencyChange></FrequencyChanges></Clock>\n",2.0.10.252,2.0.10.356,2.0.10.356,Professional,1.0.0.6
Proc5,,List13,,,,,,,75,3,50,50,4432,3,0,,25,,,,,,,,,,,,,,,,,3,1,3,,,,,,,,,,,,,,,,,,,,,,DelayDiscountingTitrated,12-16-2023,08:49:44,12/16/2023 1:49:44 PM,3063,1,18,DelayDiscountingTitrated-3063-1,1987288626,1,60.017,"<?xml version=""1.0""?>\n<Clock xmlns:dt=""urn:schemas-microsoft-com:datatypes""><Description dt:dt=""string"">E-Prime Primary Realtime Clock</Description><StartTime><Timestamp dt:dt=""int"">0</Timestamp><DateUtc dt:dt=""string"">2023-12-16T13:49:44Z</DateUtc></StartTime><FrequencyChanges><FrequencyChange><Frequency dt:dt=""r8"">10000000</Frequency><Timestamp dt:dt=""r8"">3738606789247</Timestamp><Current dt:dt=""r8"">0</Current><DateUtc dt:dt=""string"">2023-12-16T13:49:44Z</DateUtc></FrequencyChange></FrequencyChanges></Clock>\n",2.0.10.252,2.0.10.356,2.0.10.356,Professional,1.0.0.6
Proc5,,List13,,,,,,,63,1,75,75,2974,1,0,,12,,,,,,,,,,,,,,,,,4,1,4,,,,,,,,,,,,,,,,,,,,,,DelayDiscountingTitrated,12-16-2023,08:49:44,12/16/2023 1:49:44 PM,3063,1,18,DelayDiscountingTitrated-3063-1,1987288626,1,60.017,"<?xml version=""1.0""?>\n<Clock xmlns:dt=""urn:schemas-microsoft-com:datatypes""><Description dt:dt=""string"">E-Prime Primary Realtime Clock</Description><StartTime><Timestamp dt:dt=""int"">0</Timestamp><DateUtc dt:dt=""string"">2023-12-16T13:49:44Z</DateUtc></StartTime><FrequencyChanges><FrequencyChange><Frequency dt:dt=""r8"">10000000</Frequency><Timestamp dt:dt=""r8"">3738606789247</Timestamp><Current dt:dt=""r8"">0</Current><DateUtc dt:dt=""string"">2023-12-16T13:49:44Z</DateUtc></FrequencyChange></FrequencyChanges></Clock>\n",2.0.10.252,2.0.10.356,2.0.10.356,Professional,1.0.0.6
Proc5,,List13,,,,,,,57,1,63,63,2967,1,0,,6,,,,,,,,,,,,,,,,,5,1,5,,,,,,,,,,,,,,,,,,,,,,DelayDiscountingTitrated,12-16-2023,08:49:44,12/16/2023 1:49:44 PM,3063,1,18,DelayDiscountingTitrated-3063-1,1987288626,1,60.017,"<?xml version=""1.0""?>\n<Clock xmlns:dt=""urn:schemas-microsoft-com:datatypes""><Description dt:dt=""string"">E-Prime Primary Realtime Clock</Description><StartTime><Timestamp dt:dt=""int"">0</Timestamp><DateUtc dt:dt=""string"">2023-12-16T13:49:44Z</DateUtc></StartTime><FrequencyChanges><FrequencyChange><Frequency dt:dt=""r8"">10000000</Frequency><Timestamp dt:dt=""r8"">3738606789247</Timestamp><Current dt:dt=""r8"">0</Current><DateUtc dt:dt=""string"">2023-12-16T13:49:44Z</DateUtc></FrequencyChange></FrequencyChanges></Clock>\n",2.0.10.252,2.0.10.356,2.0.10.356,Professional,1.0.0.6
Proc5,,List13,,,,,,,60,3,57,57,1399,3,0,,3,,,,,,,,,,,,,,,,,6,1,6,,,,,,,,,,,,,,,,,,,,,,DelayDiscountingTitrated,12-16-2023,08:49:44,12/16/2023 1:49:44 PM,3063,1,18,DelayDiscountingTitrated-3063-1,1987288626,1,60.017,"<?xml version=""1.0""?>\n<Clock xmlns:dt=""urn:schemas-microsoft-com:datatypes""><Description dt:dt=""string"">E-Prime Primary Realtime Clock</Description><StartTime><Timestamp dt:dt=""int"">0</Timestamp><DateUtc dt:dt=""string"">2023-12-16T13:49:44Z</DateUtc></StartTime><FrequencyChanges><FrequencyChange><Frequency dt:dt=""r8"">10000000</Frequency><Timestamp dt:dt=""r8"">3738606789247</Timestamp><Current dt:dt=""r8"">0</Current><DateUtc dt:dt=""string"">2023-12-16T13:49:44Z</DateUtc></FrequencyChange></FrequencyChanges></Clock>\n",2.0.10.252,2.0.10.356,2.0.10.356,Professional,1.0.0.6
Proc5,,List13,,,,,,,58,1,60,60,2230,1,0,,2,,,,,,,,,,,,,,,,,7,1,7,,,,,,,,,,,,,,,,,,,,,,DelayDiscountingTitrated,12-16-2023,08:49:44,12/16/2023 1:49:44 PM,3063,1,18,DelayDiscountingTitrated-3063-1,1987288626,1,60.017,"<?xml version=""1.0""?>\n<Clock xmlns:dt=""urn:schemas-microsoft-com:datatypes""><Description dt:dt=""string"">E-Prime Primary Realtime Clock</Description><StartTime><Timestamp dt:dt=""int"">0</Timestamp><DateUtc dt:dt=""string"">2023-12-16T13:49:44Z</DateUtc></StartTime><FrequencyChanges><FrequencyChange><Frequency dt:dt=""r8"">10000000</Frequency><Timestamp dt:dt=""r8"">3738606789247</Timestamp><Current dt:dt=""r8"">0</Current><DateUtc dt:dt=""string"">2023-12-16T13:49:44Z</DateUtc></FrequencyChange></FrequencyChanges></Clock>\n",2.0.10.252,2.0.10.356,2.0.10.356,Professional,1.0.0.6
Proc5,,List13,,,,,,,59,3,58,58,1076,3,0,,1,,,,,,,,,,,,,,,,,8,1,8,,,,,,,,,,,,,,,,,,,,,,DelayDiscountingTitrated,12-16-2023,08:49:44,12/16/2023 1:49:44 PM,3063,1,18,DelayDiscountingTitrated-3063-1,1987288626,1,60.017,"<?xml version=""1.0""?>\n<Clock xmlns:dt=""urn:schemas-microsoft-com:datatypes""><Description dt:dt=""string"">E-Prime Primary Realtime Clock</Description><StartTime><Timestamp dt:dt=""int"">0</Timestamp><DateUtc dt:dt=""string"">2023-12-16T13:49:44Z</DateUtc></StartTime><FrequencyChanges><FrequencyChange><Frequency dt:dt=""r8"">10000000</Frequency><Timestamp dt:dt=""r8"">3738606789247</Timestamp><Current dt:dt=""r8"">0</Current><DateUtc dt:dt=""string"">2023-12-16T13:49:44Z</DateUtc></FrequencyChange></FrequencyChanges></Clock>\n",2.0.10.252,2.0.10.356,2.0.10.356,Professional,1.0.0.6
Proc5,,List13,,,,,,,59,1,58,59,912,1,0,,,,,,,,,,,,,,,,,,,9,1,9,,,,,,,,,,,,,,,,,,,,,,DelayDiscountingTitrated,12-16-2023,08:49:44,12/16/2023 1:49:44 PM,3063,1,18,DelayDiscountingTitrated-3063-1,1987288626,1,60.017,"<?xml version=""1.0""?>\n<Clock xmlns:dt=""urn:schemas-microsoft-com:datatypes""><Description dt:dt=""string"">E-Prime Primary Realtime Clock</Description><StartTime><Timestamp dt:dt=""int"">0</Timestamp><DateUtc dt:dt=""string"">2023-12-16T13:49:44Z</DateUtc></StartTime><FrequencyChanges><FrequencyChange><Frequency dt:dt=""r8"">10000000</Frequency><Timestamp dt:dt=""r8"">3738606789247</Timestamp><Current dt:dt=""r8"">0</Current><DateUtc dt:dt=""string"">2023-12-16T13:49:44Z</DateUtc></FrequencyChange></FrequencyChanges></Clock>\n",2.0.10.252,2.0.10.356,2.0.10.356,Professional,1.0.0.6
discount5,,List8,,,,,,,,,,,,,,,,200,15 years,,5475,,,,,,,,,,,,,,,,1,2,1,,,,,,,,,,,,,,,,,,,DelayDiscountingTitrated,12-16-2023,08:49:44,12/16/2023 1:49:44 PM,3063,1,18,DelayDiscountingTitrated-3063-1,1987288626,1,60.017,"<?xml version=""1.0""?>\n<Clock xmlns:dt=""urn:schemas-microsoft-com:datatypes""><Description dt:dt=""string"">E-Prime Primary Realtime Clock</Description><StartTime><Timestamp dt:dt=""int"">0</Timestamp><DateUtc dt:dt=""string"">2023-12-16T13:49:44Z</DateUtc></StartTime><FrequencyChanges><FrequencyChange><Frequency dt:dt=""r8"">10000000</Frequency><Timestamp dt:dt=""r8"">3738606789247</Timestamp><Current dt:dt=""r8"">0</Current><DateUtc dt:dt=""string"">2023-12-16T13:49:44Z</DateUtc></FrequencyChange></FrequencyChanges></Clock>\n",2.0.10.252,2.0.10.356,2.0.10.356,Professional,1.0.0.6
fifteenyearproc,,List1,,,,,,,,,,,,,,,,,,,,,,6,1,3,3,,,,,,,,,,,,,,,,,,,,,,,,,,,,,,,DelayDiscountingTitrated,12-16-2023,08:49:44,12/16/2023 1:49:44 PM,3063,1,18,DelayDiscountingTitrated-3063-1,1987288626,1,60.017,"<?xml version=""1.0""?>\n<Clock xmlns:dt=""urn:schemas-microsoft-com:datatypes""><Description dt:dt=""string"">E-Prime Primary Realtime Clock</Description><StartTime><Timestamp dt:dt=""int"">0</Timestamp><DateUtc dt:dt=""string"">2023-12-16T13:49:44Z</DateUtc></StartTime><FrequencyChanges><FrequencyChange><Frequency dt:dt=""r8"">10000000</Frequency><Timestamp dt:dt=""r8"">3738606789247</Timestamp><Current dt:dt=""r8"">0</Current><DateUtc dt:dt=""string"">2023-12-16T13:49:44Z</DateUtc></FrequencyChange></FrequencyChanges></Clock>\n",2.0.10.252,2.0.10.356,2.0.10.356,Professional,1.0.0.6
Init4,,List12,,,8909,3,0,,600,3,200,,,,,,,,,,,,,,,,,,,,,,,,,,,,,1,1,1,,,,,,,,,,,,,,,,DelayDiscountingTitrated,12-16-2023,08:49:44,12/16/2023 1:49:44 PM,3063,1,18,DelayDiscountingTitrated-3063-1,1987288626,1,60.017,"<?xml version=""1.0""?>\n<Clock xmlns:dt=""urn:schemas-microsoft-com:datatypes""><Description dt:dt=""string"">E-Prime Primary Realtime Clock</Description><StartTime><Timestamp dt:dt=""int"">0</Timestamp><DateUtc dt:dt=""string"">2023-12-16T13:49:44Z</DateUtc></StartTime><FrequencyChanges><FrequencyChange><Frequency dt:dt=""r8"">10000000</Frequency><Timestamp dt:dt=""r8"">3738606789247</Timestamp><Current dt:dt=""r8"">0</Current><DateUtc dt:dt=""string"">2023-12-16T13:49:44Z</DateUtc></FrequencyChange></FrequencyChanges></Clock>\n",2.0.10.252,2.0.10.356,2.0.10.356,Professional,1.0.0.6
Proc4,,List12,,,,,,,800,3,600,600,1698,3,0,,200,,,,,,,,,,,,,,,,,,,,,,,2,1,2,,,,,,,,,,,,,,,,DelayDiscountingTitrated,12-16-2023,08:49:44,12/16/2023 1:49:44 PM,3063,1,18,DelayDiscountingTitrated-3063-1,1987288626,1,60.017,"<?xml version=""1.0""?>\n<Clock xmlns:dt=""urn:schemas-microsoft-com:datatypes""><Description dt:dt=""string"">E-Prime Primary Realtime Clock</Description><StartTime><Timestamp dt:dt=""int"">0</Timestamp><DateUtc dt:dt=""string"">2023-12-16T13:49:44Z</DateUtc></StartTime><FrequencyChanges><FrequencyChange><Frequency dt:dt=""r8"">10000000</Frequency><Timestamp dt:dt=""r8"">3738606789247</Timestamp><Current dt:dt=""r8"">0</Current><DateUtc dt:dt=""string"">2023-12-16T13:49:44Z</DateUtc></FrequencyChange></FrequencyChanges></Clock>\n",2.0.10.252,2.0.10.356,2.0.10.356,Professional,1.0.0.6
Proc4,,List12,,,,,,,900,3,800,800,1188,3,0,,100,,,,,,,,,,,,,,,,,,,,,,,3,1,3,,,,,,,,,,,,,,,,DelayDiscountingTitrated,12-16-2023,08:49:44,12/16/2023 1:49:44 PM,3063,1,18,DelayDiscountingTitrated-3063-1,1987288626,1,60.017,"<?xml version=""1.0""?>\n<Clock xmlns:dt=""urn:schemas-microsoft-com:datatypes""><Description dt:dt=""string"">E-Prime Primary Realtime Clock</Description><StartTime><Timestamp dt:dt=""int"">0</Timestamp><DateUtc dt:dt=""string"">2023-12-16T13:49:44Z</DateUtc></StartTime><FrequencyChanges><FrequencyChange><Frequency dt:dt=""r8"">10000000</Frequency><Timestamp dt:dt=""r8"">3738606789247</Timestamp><Current dt:dt=""r8"">0</Current><DateUtc dt:dt=""string"">2023-12-16T13:49:44Z</DateUtc></FrequencyChange></FrequencyChanges></Clock>\n",2.0.10.252,2.0.10.356,2.0.10.356,Professional,1.0.0.6
Proc4,,List12,,,,,,,950,3,900,900,1780,3,0,,50,,,,,,,,,,,,,,,,,,,,,,,4,1,4,,,,,,,,,,,,,,,,DelayDiscountingTitrated,12-16-2023,08:49:44,12/16/2023 1:49:44 PM,3063,1,18,DelayDiscountingTitrated-3063-1,1987288626,1,60.017,"<?xml version=""1.0""?>\n<Clock xmlns:dt=""urn:schemas-microsoft-com:datatypes""><Description dt:dt=""string"">E-Prime Primary Realtime Clock</Description><StartTime><Timestamp dt:dt=""int"">0</Timestamp><DateUtc dt:dt=""string"">2023-12-16T13:49:44Z</DateUtc></StartTime><FrequencyChanges><FrequencyChange><Frequency dt:dt=""r8"">10000000</Frequency><Timestamp dt:dt=""r8"">3738606789247</Timestamp><Current dt:dt=""r8"">0</Current><DateUtc dt:dt=""string"">2023-12-16T13:49:44Z</DateUtc></FrequencyChange></FrequencyChanges></Clock>\n",2.0.10.252,2.0.10.356,2.0.10.356,Professional,1.0.0.6
Proc4,,List12,,,,,,,975,3,950,950,2115,3,0,,25,,,,,,,,,,,,,,,,,,,,,,,5,1,5,,,,,,,,,,,,,,,,DelayDiscountingTitrated,12-16-2023,08:49:44,12/16/2023 1:49:44 PM,3063,1,18,DelayDiscountingTitrated-3063-1,1987288626,1,60.017,"<?xml version=""1.0""?>\n<Clock xmlns:dt=""urn:schemas-microsoft-com:datatypes""><Description dt:dt=""string"">E-Prime Primary Realtime Clock</Description><StartTime><Timestamp dt:dt=""int"">0</Timestamp><DateUtc dt:dt=""string"">2023-12-16T13:49:44Z</DateUtc></StartTime><FrequencyChanges><FrequencyChange><Frequency dt:dt=""r8"">10000000</Frequency><Timestamp dt:dt=""r8"">3738606789247</Timestamp><Current dt:dt=""r8"">0</Current><DateUtc dt:dt=""string"">2023-12-16T13:49:44Z</DateUtc></FrequencyChange></FrequencyChanges></Clock>\n",2.0.10.252,2.0.10.356,2.0.10.356,Professional,1.0.0.6
Proc4,,List12,,,,,,,987,3,975,975,1382,3,0,,12,,,,,,,,,,,,,,,,,,,,,,,6,1,6,,,,,,,,,,,,,,,,DelayDiscountingTitrated,12-16-2023,08:49:44,12/16/2023 1:49:44 PM,3063,1,18,DelayDiscountingTitrated-3063-1,1987288626,1,60.017,"<?xml version=""1.0""?>\n<Clock xmlns:dt=""urn:schemas-microsoft-com:datatypes""><Description dt:dt=""string"">E-Prime Primary Realtime Clock</Description><StartTime><Timestamp dt:dt=""int"">0</Timestamp><DateUtc dt:dt=""string"">2023-12-16T13:49:44Z</DateUtc></StartTime><FrequencyChanges><FrequencyChange><Frequency dt:dt=""r8"">10000000</Frequency><Timestamp dt:dt=""r8"">3738606789247</Timestamp><Current dt:dt=""r8"">0</Current><DateUtc dt:dt=""string"">2023-12-16T13:49:44Z</DateUtc></FrequencyChange></FrequencyChanges></Clock>\n",2.0.10.252,2.0.10.356,2.0.10.356,Professional,1.0.0.6
Proc4,,List12,,,,,,,993,3,987,987,2045,3,0,,6,,,,,,,,,,,,,,,,,,,,,,,7,1,7,,,,,,,,,,,,,,,,DelayDiscountingTitrated,12-16-2023,08:49:44,12/16/2023 1:49:44 PM,3063,1,18,DelayDiscountingTitrated-3063-1,1987288626,1,60.017,"<?xml version=""1.0""?>\n<Clock xmlns:dt=""urn:schemas-microsoft-com:datatypes""><Description dt:dt=""string"">E-Prime Primary Realtime Clock</Description><StartTime><Timestamp dt:dt=""int"">0</Timestamp><DateUtc dt:dt=""string"">2023-12-16T13:49:44Z</DateUtc></StartTime><FrequencyChanges><FrequencyChange><Frequency dt:dt=""r8"">10000000</Frequency><Timestamp dt:dt=""r8"">3738606789247</Timestamp><Current dt:dt=""r8"">0</Current><DateUtc dt:dt=""string"">2023-12-16T13:49:44Z</DateUtc></FrequencyChange></FrequencyChanges></Clock>\n",2.0.10.252,2.0.10.356,2.0.10.356,Professional,1.0.0.6
Proc4,,List12,,,,,,,990,1,993,993,1402,1,0,,3,,,,,,,,,,,,,,,,,,,,,,,8,1,8,,,,,,,,,,,,,,,,DelayDiscountingTitrated,12-16-2023,08:49:44,12/16/2023 1:49:44 PM,3063,1,18,DelayDiscountingTitrated-3063-1,1987288626,1,60.017,"<?xml version=""1.0""?>\n<Clock xmlns:dt=""urn:schemas-microsoft-com:datatypes""><Description dt:dt=""string"">E-Prime Primary Realtime Clock</Description><StartTime><Timestamp dt:dt=""int"">0</Timestamp><DateUtc dt:dt=""string"">2023-12-16T13:49:44Z</DateUtc></StartTime><FrequencyChanges><FrequencyChange><Frequency dt:dt=""r8"">10000000</Frequency><Timestamp dt:dt=""r8"">3738606789247</Timestamp><Current dt:dt=""r8"">0</Current><DateUtc dt:dt=""string"">2023-12-16T13:49:44Z</DateUtc></FrequencyChange></FrequencyChanges></Clock>\n",2.0.10.252,2.0.10.356,2.0.10.356,Professional,1.0.0.6
Proc4,,List12,,,,,,,988,1,990,990,761,1,0,,2,,,,,,,,,,,,,,,,,,,,,,,9,1,9,,,,,,,,,,,,,,,,DelayDiscountingTitrated,12-16-2023,08:49:44,12/16/2023 1:49:44 PM,3063,1,18,DelayDiscountingTitrated-3063-1,1987288626,1,60.017,"<?xml version=""1.0""?>\n<Clock xmlns:dt=""urn:schemas-microsoft-com:datatypes""><Description dt:dt=""string"">E-Prime Primary Realtime Clock</Description><StartTime><Timestamp dt:dt=""int"">0</Timestamp><DateUtc dt:dt=""string"">2023-12-16T13:49:44Z</DateUtc></StartTime><FrequencyChanges><FrequencyChange><Frequency dt:dt=""r8"">10000000</Frequency><Timestamp dt:dt=""r8"">3738606789247</Timestamp><Current dt:dt=""r8"">0</Current><DateUtc dt:dt=""string"">2023-12-16T13:49:44Z</DateUtc></FrequencyChange></FrequencyChanges></Clock>\n",2.0.10.252,2.0.10.356,2.0.10.356,Professional,1.0.0.6
Proc4,,List12,,,,,,,989,3,988,988,1169,3,0,,1,,,,,,,,,,,,,,,,,,,,,,,10,1,10,,,,,,,,,,,,,,,,DelayDiscountingTitrated,12-16-2023,08:49:44,12/16/2023 1:49:44 PM,3063,1,18,DelayDiscountingTitrated-3063-1,1987288626,1,60.017,"<?xml version=""1.0""?>\n<Clock xmlns:dt=""urn:schemas-microsoft-com:datatypes""><Description dt:dt=""string"">E-Prime Primary Realtime Clock</Description><StartTime><Timestamp dt:dt=""int"">0</Timestamp><DateUtc dt:dt=""string"">2023-12-16T13:49:44Z</DateUtc></StartTime><FrequencyChanges><FrequencyChange><Frequency dt:dt=""r8"">10000000</Frequency><Timestamp dt:dt=""r8"">3738606789247</Timestamp><Current dt:dt=""r8"">0</Current><DateUtc dt:dt=""string"">2023-12-16T13:49:44Z</DateUtc></FrequencyChange></FrequencyChanges></Clock>\n",2.0.10.252,2.0.10.356,2.0.10.356,Professional,1.0.0.6
Proc4,,List12,,,,,,,989,3,988,989,889,3,0,,,,,,,,,,,,,,,,,,,,,,,,,11,1,11,,,,,,,,,,,,,,,,DelayDiscountingTitrated,12-16-2023,08:49:44,12/16/2023 1:49:44 PM,3063,1,18,DelayDiscountingTitrated-3063-1,1987288626,1,60.017,"<?xml version=""1.0""?>\n<Clock xmlns:dt=""urn:schemas-microsoft-com:datatypes""><Description dt:dt=""string"">E-Prime Primary Realtime Clock</Description><StartTime><Timestamp dt:dt=""int"">0</Timestamp><DateUtc dt:dt=""string"">2023-12-16T13:49:44Z</DateUtc></StartTime><FrequencyChanges><FrequencyChange><Frequency dt:dt=""r8"">10000000</Frequency><Timestamp dt:dt=""r8"">3738606789247</Timestamp><Current dt:dt=""r8"">0</Current><DateUtc dt:dt=""string"">2023-12-16T13:49:44Z</DateUtc></FrequencyChange></FrequencyChanges></Clock>\n",2.0.10.252,2.0.10.356,2.0.10.356,Professional,1.0.0.6
discount4,,List7,,,,,,,,,,,,,,,,200,5 years,,1825,,,,,,,,,,,,,,,,,,,,,,1,1,1,,,,,,,,,,,,,DelayDiscountingTitrated,12-16-2023,08:49:44,12/16/2023 1:49:44 PM,3063,1,18,DelayDiscountingTitrated-3063-1,1987288626,1,60.017,"<?xml version=""1.0""?>\n<Clock xmlns:dt=""urn:schemas-microsoft-com:datatypes""><Description dt:dt=""string"">E-Prime Primary Realtime Clock</Description><StartTime><Timestamp dt:dt=""int"">0</Timestamp><DateUtc dt:dt=""string"">2023-12-16T13:49:44Z</DateUtc></StartTime><FrequencyChanges><FrequencyChange><Frequency dt:dt=""r8"">10000000</Frequency><Timestamp dt:dt=""r8"">3738606789247</Timestamp><Current dt:dt=""r8"">0</Current><DateUtc dt:dt=""string"">2023-12-16T13:49:44Z</DateUtc></FrequencyChange></FrequencyChanges></Clock>\n",2.0.10.252,2.0.10.356,2.0.10.356,Professional,1.0.0.6
fiveyearproc,,List1,,,,,,,,,,,,,,,,,,,,,,5,1,4,4,,,,,,,,,,,,,,,,,,,,,,,,,,,,,,,DelayDiscountingTitrated,12-16-2023,08:49:44,12/16/2023 1:49:44 PM,3063,1,18,DelayDiscountingTitrated-3063-1,1987288626,1,60.017,"<?xml version=""1.0""?>\n<Clock xmlns:dt=""urn:schemas-microsoft-com:datatypes""><Description dt:dt=""string"">E-Prime Primary Realtime Clock</Description><StartTime><Timestamp dt:dt=""int"">0</Timestamp><DateUtc dt:dt=""string"">2023-12-16T13:49:44Z</DateUtc></StartTime><FrequencyChanges><FrequencyChange><Frequency dt:dt=""r8"">10000000</Frequency><Timestamp dt:dt=""r8"">3738606789247</Timestamp><Current dt:dt=""r8"">0</Current><DateUtc dt:dt=""string"">2023-12-16T13:49:44Z</DateUtc></FrequencyChange></FrequencyChanges></Clock>\n",2.0.10.252,2.0.10.356,2.0.10.356,Professional,1.0.0.6
Init3,,List11,,,5121,1,0,,400,1,800,,,,,,,,,,,,,,,,,,,,,,,,,,,,,,,,,,,1,1,1,,,,,,,,,,DelayDiscountingTitrated,12-16-2023,08:49:44,12/16/2023 1:49:44 PM,3063,1,18,DelayDiscountingTitrated-3063-1,1987288626,1,60.017,"<?xml version=""1.0""?>\n<Clock xmlns:dt=""urn:schemas-microsoft-com:datatypes""><Description dt:dt=""string"">E-Prime Primary Realtime Clock</Description><StartTime><Timestamp dt:dt=""int"">0</Timestamp><DateUtc dt:dt=""string"">2023-12-16T13:49:44Z</DateUtc></StartTime><FrequencyChanges><FrequencyChange><Frequency dt:dt=""r8"">10000000</Frequency><Timestamp dt:dt=""r8"">3738606789247</Timestamp><Current dt:dt=""r8"">0</Current><DateUtc dt:dt=""string"">2023-12-16T13:49:44Z</DateUtc></FrequencyChange></FrequencyChanges></Clock>\n",2.0.10.252,2.0.10.356,2.0.10.356,Professional,1.0.0.6
Proc3,,List11,,,,,,,600,3,400,400,1380,3,0,,200,,,,,,,,,,,,,,,,,,,,,,,,,,,,,2,1,2,,,,,,,,,,DelayDiscountingTitrated,12-16-2023,08:49:44,12/16/2023 1:49:44 PM,3063,1,18,DelayDiscountingTitrated-3063-1,1987288626,1,60.017,"<?xml version=""1.0""?>\n<Clock xmlns:dt=""urn:schemas-microsoft-com:datatypes""><Description dt:dt=""string"">E-Prime Primary Realtime Clock</Description><StartTime><Timestamp dt:dt=""int"">0</Timestamp><DateUtc dt:dt=""string"">2023-12-16T13:49:44Z</DateUtc></StartTime><FrequencyChanges><FrequencyChange><Frequency dt:dt=""r8"">10000000</Frequency><Timestamp dt:dt=""r8"">3738606789247</Timestamp><Current dt:dt=""r8"">0</Current><DateUtc dt:dt=""string"">2023-12-16T13:49:44Z</DateUtc></FrequencyChange></FrequencyChanges></Clock>\n",2.0.10.252,2.0.10.356,2.0.10.356,Professional,1.0.0.6
Proc3,,List11,,,,,,,700,3,600,600,2364,3,0,,100,,,,,,,,,,,,,,,,,,,,,,,,,,,,,3,1,3,,,,,,,,,,DelayDiscountingTitrated,12-16-2023,08:49:44,12/16/2023 1:49:44 PM,3063,1,18,DelayDiscountingTitrated-3063-1,1987288626,1,60.017,"<?xml version=""1.0""?>\n<Clock xmlns:dt=""urn:schemas-microsoft-com:datatypes""><Description dt:dt=""string"">E-Prime Primary Realtime Clock</Description><StartTime><Timestamp dt:dt=""int"">0</Timestamp><DateUtc dt:dt=""string"">2023-12-16T13:49:44Z</DateUtc></StartTime><FrequencyChanges><FrequencyChange><Frequency dt:dt=""r8"">10000000</Frequency><Timestamp dt:dt=""r8"">3738606789247</Timestamp><Current dt:dt=""r8"">0</Current><DateUtc dt:dt=""string"">2023-12-16T13:49:44Z</DateUtc></FrequencyChange></FrequencyChanges></Clock>\n",2.0.10.252,2.0.10.356,2.0.10.356,Professional,1.0.0.6
Proc3,,List11,,,,,,,750,3,700,700,1100,3,0,,50,,,,,,,,,,,,,,,,,,,,,,,,,,,,,4,1,4,,,,,,,,,,DelayDiscountingTitrated,12-16-2023,08:49:44,12/16/2023 1:49:44 PM,3063,1,18,DelayDiscountingTitrated-3063-1,1987288626,1,60.017,"<?xml version=""1.0""?>\n<Clock xmlns:dt=""urn:schemas-microsoft-com:datatypes""><Description dt:dt=""string"">E-Prime Primary Realtime Clock</Description><StartTime><Timestamp dt:dt=""int"">0</Timestamp><DateUtc dt:dt=""string"">2023-12-16T13:49:44Z</DateUtc></StartTime><FrequencyChanges><FrequencyChange><Frequency dt:dt=""r8"">10000000</Frequency><Timestamp dt:dt=""r8"">3738606789247</Timestamp><Current dt:dt=""r8"">0</Current><DateUtc dt:dt=""string"">2023-12-16T13:49:44Z</DateUtc></FrequencyChange></FrequencyChanges></Clock>\n",2.0.10.252,2.0.10.356,2.0.10.356,Professional,1.0.0.6
Proc3,,List11,,,,,,,725,1,750,750,3015,1,0,,25,,,,,,,,,,,,,,,,,,,,,,,,,,,,,5,1,5,,,,,,,,,,DelayDiscountingTitrated,12-16-2023,08:49:44,12/16/2023 1:49:44 PM,3063,1,18,DelayDiscountingTitrated-3063-1,1987288626,1,60.017,"<?xml version=""1.0""?>\n<Clock xmlns:dt=""urn:schemas-microsoft-com:datatypes""><Description dt:dt=""string"">E-Prime Primary Realtime Clock</Description><StartTime><Timestamp dt:dt=""int"">0</Timestamp><DateUtc dt:dt=""string"">2023-12-16T13:49:44Z</DateUtc></StartTime><FrequencyChanges><FrequencyChange><Frequency dt:dt=""r8"">10000000</Frequency><Timestamp dt:dt=""r8"">3738606789247</Timestamp><Current dt:dt=""r8"">0</Current><DateUtc dt:dt=""string"">2023-12-16T13:49:44Z</DateUtc></FrequencyChange></FrequencyChanges></Clock>\n",2.0.10.252,2.0.10.356,2.0.10.356,Professional,1.0.0.6
Proc3,,List11,,,,,,,737,3,725,725,1709,3,0,,12,,,,,,,,,,,,,,,,,,,,,,,,,,,,,6,1,6,,,,,,,,,,DelayDiscountingTitrated,12-16-2023,08:49:44,12/16/2023 1:49:44 PM,3063,1,18,DelayDiscountingTitrated-3063-1,1987288626,1,60.017,"<?xml version=""1.0""?>\n<Clock xmlns:dt=""urn:schemas-microsoft-com:datatypes""><Description dt:dt=""string"">E-Prime Primary Realtime Clock</Description><StartTime><Timestamp dt:dt=""int"">0</Timestamp><DateUtc dt:dt=""string"">2023-12-16T13:49:44Z</DateUtc></StartTime><FrequencyChanges><FrequencyChange><Frequency dt:dt=""r8"">10000000</Frequency><Timestamp dt:dt=""r8"">3738606789247</Timestamp><Current dt:dt=""r8"">0</Current><DateUtc dt:dt=""string"">2023-12-16T13:49:44Z</DateUtc></FrequencyChange></FrequencyChanges></Clock>\n",2.0.10.252,2.0.10.356,2.0.10.356,Professional,1.0.0.6
Proc3,,List11,,,,,,,743,3,737,737,1208,3,0,,6,,,,,,,,,,,,,,,,,,,,,,,,,,,,,7,1,7,,,,,,,,,,DelayDiscountingTitrated,12-16-2023,08:49:44,12/16/2023 1:49:44 PM,3063,1,18,DelayDiscountingTitrated-3063-1,1987288626,1,60.017,"<?xml version=""1.0""?>\n<Clock xmlns:dt=""urn:schemas-microsoft-com:datatypes""><Description dt:dt=""string"">E-Prime Primary Realtime Clock</Description><StartTime><Timestamp dt:dt=""int"">0</Timestamp><DateUtc dt:dt=""string"">2023-12-16T13:49:44Z</DateUtc></StartTime><FrequencyChanges><FrequencyChange><Frequency dt:dt=""r8"">10000000</Frequency><Timestamp dt:dt=""r8"">3738606789247</Timestamp><Current dt:dt=""r8"">0</Current><DateUtc dt:dt=""string"">2023-12-16T13:49:44Z</DateUtc></FrequencyChange></FrequencyChanges></Clock>\n",2.0.10.252,2.0.10.356,2.0.10.356,Professional,1.0.0.6
Proc3,,List11,,,,,,,746,3,743,743,943,3,0,,3,,,,,,,,,,,,,,,,,,,,,,,,,,,,,8,1,8,,,,,,,,,,DelayDiscountingTitrated,12-16-2023,08:49:44,12/16/2023 1:49:44 PM,3063,1,18,DelayDiscountingTitrated-3063-1,1987288626,1,60.017,"<?xml version=""1.0""?>\n<Clock xmlns:dt=""urn:schemas-microsoft-com:datatypes""><Description dt:dt=""string"">E-Prime Primary Realtime Clock</Description><StartTime><Timestamp dt:dt=""int"">0</Timestamp><DateUtc dt:dt=""string"">2023-12-16T13:49:44Z</DateUtc></StartTime><FrequencyChanges><FrequencyChange><Frequency dt:dt=""r8"">10000000</Frequency><Timestamp dt:dt=""r8"">3738606789247</Timestamp><Current dt:dt=""r8"">0</Current><DateUtc dt:dt=""string"">2023-12-16T13:49:44Z</DateUtc></FrequencyChange></FrequencyChanges></Clock>\n",2.0.10.252,2.0.10.356,2.0.10.356,Professional,1.0.0.6
Proc3,,List11,,,,,,,748,3,746,746,1216,3,0,,2,,,,,,,,,,,,,,,,,,,,,,,,,,,,,9,1,9,,,,,,,,,,DelayDiscountingTitrated,12-16-2023,08:49:44,12/16/2023 1:49:44 PM,3063,1,18,DelayDiscountingTitrated-3063-1,1987288626,1,60.017,"<?xml version=""1.0""?>\n<Clock xmlns:dt=""urn:schemas-microsoft-com:datatypes""><Description dt:dt=""string"">E-Prime Primary Realtime Clock</Description><StartTime><Timestamp dt:dt=""int"">0</Timestamp><DateUtc dt:dt=""string"">2023-12-16T13:49:44Z</DateUtc></StartTime><FrequencyChanges><FrequencyChange><Frequency dt:dt=""r8"">10000000</Frequency><Timestamp dt:dt=""r8"">3738606789247</Timestamp><Current dt:dt=""r8"">0</Current><DateUtc dt:dt=""string"">2023-12-16T13:49:44Z</DateUtc></FrequencyChange></FrequencyChanges></Clock>\n",2.0.10.252,2.0.10.356,2.0.10.356,Professional,1.0.0.6
Proc3,,List11,,,,,,,749,3,748,748,750,3,0,,1,,,,,,,,,,,,,,,,,,,,,,,,,,,,,10,1,10,,,,,,,,,,DelayDiscountingTitrated,12-16-2023,08:49:44,12/16/2023 1:49:44 PM,3063,1,18,DelayDiscountingTitrated-3063-1,1987288626,1,60.017,"<?xml version=""1.0""?>\n<Clock xmlns:dt=""urn:schemas-microsoft-com:datatypes""><Description dt:dt=""string"">E-Prime Primary Realtime Clock</Description><StartTime><Timestamp dt:dt=""int"">0</Timestamp><DateUtc dt:dt=""string"">2023-12-16T13:49:44Z</DateUtc></StartTime><FrequencyChanges><FrequencyChange><Frequency dt:dt=""r8"">10000000</Frequency><Timestamp dt:dt=""r8"">3738606789247</Timestamp><Current dt:dt=""r8"">0</Current><DateUtc dt:dt=""string"">2023-12-16T13:49:44Z</DateUtc></FrequencyChange></FrequencyChanges></Clock>\n",2.0.10.252,2.0.10.356,2.0.10.356,Professional,1.0.0.6
Proc3,,List11,,,,,,,749,3,748,749,871,3,0,,,,,,,,,,,,,,,,,,,,,,,,,,,,,,,11,1,11,,,,,,,,,,DelayDiscountingTitrated,12-16-2023,08:49:44,12/16/2023 1:49:44 PM,3063,1,18,DelayDiscountingTitrated-3063-1,1987288626,1,60.017,"<?xml version=""1.0""?>\n<Clock xmlns:dt=""urn:schemas-microsoft-com:datatypes""><Description dt:dt=""string"">E-Prime Primary Realtime Clock</Description><StartTime><Timestamp dt:dt=""int"">0</Timestamp><DateUtc dt:dt=""string"">2023-12-16T13:49:44Z</DateUtc></StartTime><FrequencyChanges><FrequencyChange><Frequency dt:dt=""r8"">10000000</Frequency><Timestamp dt:dt=""r8"">3738606789247</Timestamp><Current dt:dt=""r8"">0</Current><DateUtc dt:dt=""string"">2023-12-16T13:49:44Z</DateUtc></FrequencyChange></FrequencyChanges></Clock>\n",2.0.10.252,2.0.10.356,2.0.10.356,Professional,1.0.0.6
discount3,,List6,,,,,,,,,,,,,,,,800,1 year,,365,,,,,,,,,,,,,,,,,,,,,,,,,,,,3,1,1,,,,,,,DelayDiscountingTitrated,12-16-2023,08:49:44,12/16/2023 1:49:44 PM,3063,1,18,DelayDiscountingTitrated-3063-1,1987288626,1,60.017,"<?xml version=""1.0""?>\n<Clock xmlns:dt=""urn:schemas-microsoft-com:datatypes""><Description dt:dt=""string"">E-Prime Primary Realtime Clock</Description><StartTime><Timestamp dt:dt=""int"">0</Timestamp><DateUtc dt:dt=""string"">2023-12-16T13:49:44Z</DateUtc></StartTime><FrequencyChanges><FrequencyChange><Frequency dt:dt=""r8"">10000000</Frequency><Timestamp dt:dt=""r8"">3738606789247</Timestamp><Current dt:dt=""r8"">0</Current><DateUtc dt:dt=""string"">2023-12-16T13:49:44Z</DateUtc></FrequencyChange></FrequencyChanges></Clock>\n",2.0.10.252,2.0.10.356,2.0.10.356,Professional,1.0.0.6
oneyearproc,,List1,,,,,,,,,,,,,,,,,,,,,,4,1,5,5,,,,,,,,,,,,,,,,,,,,,,,,,,,,,,,DelayDiscountingTitrated,12-16-2023,08:49:44,12/16/2023 1:49:44 PM,3063,1,18,DelayDiscountingTitrated-3063-1,1987288626,1,60.017,"<?xml version=""1.0""?>\n<Clock xmlns:dt=""urn:schemas-microsoft-com:datatypes""><Description dt:dt=""string"">E-Prime Primary Realtime Clock</Description><StartTime><Timestamp dt:dt=""int"">0</Timestamp><DateUtc dt:dt=""string"">2023-12-16T13:49:44Z</DateUtc></StartTime><FrequencyChanges><FrequencyChange><Frequency dt:dt=""r8"">10000000</Frequency><Timestamp dt:dt=""r8"">3738606789247</Timestamp><Current dt:dt=""r8"">0</Current><DateUtc dt:dt=""string"">2023-12-16T13:49:44Z</DateUtc></FrequencyChange></FrequencyChanges></Clock>\n",2.0.10.252,2.0.10.356,2.0.10.356,Professional,1.0.0.6
Init1,,List9,,,4911,3,0,,900,3,800,,,,,,,,,,,,,,,,,,,,,,,,,,,,,,,,,,,,,,,,,1,1,1,,,,DelayDiscountingTitrated,12-16-2023,08:49:44,12/16/2023 1:49:44 PM,3063,1,18,DelayDiscountingTitrated-3063-1,1987288626,1,60.017,"<?xml version=""1.0""?>\n<Clock xmlns:dt=""urn:schemas-microsoft-com:datatypes""><Description dt:dt=""string"">E-Prime Primary Realtime Clock</Description><StartTime><Timestamp dt:dt=""int"">0</Timestamp><DateUtc dt:dt=""string"">2023-12-16T13:49:44Z</DateUtc></StartTime><FrequencyChanges><FrequencyChange><Frequency dt:dt=""r8"">10000000</Frequency><Timestamp dt:dt=""r8"">3738606789247</Timestamp><Current dt:dt=""r8"">0</Current><DateUtc dt:dt=""string"">2023-12-16T13:49:44Z</DateUtc></FrequencyChange></FrequencyChanges></Clock>\n",2.0.10.252,2.0.10.356,2.0.10.356,Professional,1.0.0.6
Proc1,,List9,,,,,,,950,3,900,900,1106,3,0,,50,,,,,,,,,,,,,,,,,,,,,,,,,,,,,,,,,,,2,1,2,,,,DelayDiscountingTitrated,12-16-2023,08:49:44,12/16/2023 1:49:44 PM,3063,1,18,DelayDiscountingTitrated-3063-1,1987288626,1,60.017,"<?xml version=""1.0""?>\n<Clock xmlns:dt=""urn:schemas-microsoft-com:datatypes""><Description dt:dt=""string"">E-Prime Primary Realtime Clock</Description><StartTime><Timestamp dt:dt=""int"">0</Timestamp><DateUtc dt:dt=""string"">2023-12-16T13:49:44Z</DateUtc></StartTime><FrequencyChanges><FrequencyChange><Frequency dt:dt=""r8"">10000000</Frequency><Timestamp dt:dt=""r8"">3738606789247</Timestamp><Current dt:dt=""r8"">0</Current><DateUtc dt:dt=""string"">2023-12-16T13:49:44Z</DateUtc></FrequencyChange></FrequencyChanges></Clock>\n",2.0.10.252,2.0.10.356,2.0.10.356,Professional,1.0.0.6
Proc1,,List9,,,,,,,975,3,950,950,1037,3,0,,25,,,,,,,,,,,,,,,,,,,,,,,,,,,,,,,,,,,3,1,3,,,,DelayDiscountingTitrated,12-16-2023,08:49:44,12/16/2023 1:49:44 PM,3063,1,18,DelayDiscountingTitrated-3063-1,1987288626,1,60.017,"<?xml version=""1.0""?>\n<Clock xmlns:dt=""urn:schemas-microsoft-com:datatypes""><Description dt:dt=""string"">E-Prime Primary Realtime Clock</Description><StartTime><Timestamp dt:dt=""int"">0</Timestamp><DateUtc dt:dt=""string"">2023-12-16T13:49:44Z</DateUtc></StartTime><FrequencyChanges><FrequencyChange><Frequency dt:dt=""r8"">10000000</Frequency><Timestamp dt:dt=""r8"">3738606789247</Timestamp><Current dt:dt=""r8"">0</Current><DateUtc dt:dt=""string"">2023-12-16T13:49:44Z</DateUtc></FrequencyChange></FrequencyChanges></Clock>\n",2.0.10.252,2.0.10.356,2.0.10.356,Professional,1.0.0.6
Proc1,,List9,,,,,,,987,3,975,975,3394,3,0,,12,,,,,,,,,,,,,,,,,,,,,,,,,,,,,,,,,,,4,1,4,,,,DelayDiscountingTitrated,12-16-2023,08:49:44,12/16/2023 1:49:44 PM,3063,1,18,DelayDiscountingTitrated-3063-1,1987288626,1,60.017,"<?xml version=""1.0""?>\n<Clock xmlns:dt=""urn:schemas-microsoft-com:datatypes""><Description dt:dt=""string"">E-Prime Primary Realtime Clock</Description><StartTime><Timestamp dt:dt=""int"">0</Timestamp><DateUtc dt:dt=""string"">2023-12-16T13:49:44Z</DateUtc></StartTime><FrequencyChanges><FrequencyChange><Frequency dt:dt=""r8"">10000000</Frequency><Timestamp dt:dt=""r8"">3738606789247</Timestamp><Current dt:dt=""r8"">0</Current><DateUtc dt:dt=""string"">2023-12-16T13:49:44Z</DateUtc></FrequencyChange></FrequencyChanges></Clock>\n",2.0.10.252,2.0.10.356,2.0.10.356,Professional,1.0.0.6
Proc1,,List9,,,,,,,993,3,987,987,1097,3,0,,6,,,,,,,,,,,,,,,,,,,,,,,,,,,,,,,,,,,5,1,5,,,,DelayDiscountingTitrated,12-16-2023,08:49:44,12/16/2023 1:49:44 PM,3063,1,18,DelayDiscountingTitrated-3063-1,1987288626,1,60.017,"<?xml version=""1.0""?>\n<Clock xmlns:dt=""urn:schemas-microsoft-com:datatypes""><Description dt:dt=""string"">E-Prime Primary Realtime Clock</Description><StartTime><Timestamp dt:dt=""int"">0</Timestamp><DateUtc dt:dt=""string"">2023-12-16T13:49:44Z</DateUtc></StartTime><FrequencyChanges><FrequencyChange><Frequency dt:dt=""r8"">10000000</Frequency><Timestamp dt:dt=""r8"">3738606789247</Timestamp><Current dt:dt=""r8"">0</Current><DateUtc dt:dt=""string"">2023-12-16T13:49:44Z</DateUtc></FrequencyChange></FrequencyChanges></Clock>\n",2.0.10.252,2.0.10.356,2.0.10.356,Professional,1.0.0.6
Proc1,,List9,,,,,,,990,1,993,993,1012,1,0,,3,,,,,,,,,,,,,,,,,,,,,,,,,,,,,,,,,,,6,1,6,,,,DelayDiscountingTitrated,12-16-2023,08:49:44,12/16/2023 1:49:44 PM,3063,1,18,DelayDiscountingTitrated-3063-1,1987288626,1,60.017,"<?xml version=""1.0""?>\n<Clock xmlns:dt=""urn:schemas-microsoft-com:datatypes""><Description dt:dt=""string"">E-Prime Primary Realtime Clock</Description><StartTime><Timestamp dt:dt=""int"">0</Timestamp><DateUtc dt:dt=""string"">2023-12-16T13:49:44Z</DateUtc></StartTime><FrequencyChanges><FrequencyChange><Frequency dt:dt=""r8"">10000000</Frequency><Timestamp dt:dt=""r8"">3738606789247</Timestamp><Current dt:dt=""r8"">0</Current><DateUtc dt:dt=""string"">2023-12-16T13:49:44Z</DateUtc></FrequencyChange></FrequencyChanges></Clock>\n",2.0.10.252,2.0.10.356,2.0.10.356,Professional,1.0.0.6
Proc1,,List9,,,,,,,988,1,990,990,1826,1,0,,2,,,,,,,,,,,,,,,,,,,,,,,,,,,,,,,,,,,7,1,7,,,,DelayDiscountingTitrated,12-16-2023,08:49:44,12/16/2023 1:49:44 PM,3063,1,18,DelayDiscountingTitrated-3063-1,1987288626,1,60.017,"<?xml version=""1.0""?>\n<Clock xmlns:dt=""urn:schemas-microsoft-com:datatypes""><Description dt:dt=""string"">E-Prime Primary Realtime Clock</Description><StartTime><Timestamp dt:dt=""int"">0</Timestamp><DateUtc dt:dt=""string"">2023-12-16T13:49:44Z</DateUtc></StartTime><FrequencyChanges><FrequencyChange><Frequency dt:dt=""r8"">10000000</Frequency><Timestamp dt:dt=""r8"">3738606789247</Timestamp><Current dt:dt=""r8"">0</Current><DateUtc dt:dt=""string"">2023-12-16T13:49:44Z</DateUtc></FrequencyChange></FrequencyChanges></Clock>\n",2.0.10.252,2.0.10.356,2.0.10.356,Professional,1.0.0.6
Proc1,,List9,,,,,,,989,3,988,988,824,3,0,,1,,,,,,,,,,,,,,,,,,,,,,,,,,,,,,,,,,,8,1,8,,,,DelayDiscountingTitrated,12-16-2023,08:49:44,12/16/2023 1:49:44 PM,3063,1,18,DelayDiscountingTitrated-3063-1,1987288626,1,60.017,"<?xml version=""1.0""?>\n<Clock xmlns:dt=""urn:schemas-microsoft-com:datatypes""><Description dt:dt=""string"">E-Prime Primary Realtime Clock</Description><StartTime><Timestamp dt:dt=""int"">0</Timestamp><DateUtc dt:dt=""string"">2023-12-16T13:49:44Z</DateUtc></StartTime><FrequencyChanges><FrequencyChange><Frequency dt:dt=""r8"">10000000</Frequency><Timestamp dt:dt=""r8"">3738606789247</Timestamp><Current dt:dt=""r8"">0</Current><DateUtc dt:dt=""string"">2023-12-16T13:49:44Z</DateUtc></FrequencyChange></FrequencyChanges></Clock>\n",2.0.10.252,2.0.10.356,2.0.10.356,Professional,1.0.0.6
Proc1,,List9,,,,,,,989,3,988,989,1694,3,0,,,,,,,,,,,,,,,,,,,,,,,,,,,,,,,,,,,,,9,1,9,,,,DelayDiscountingTitrated,12-16-2023,08:49:44,12/16/2023 1:49:44 PM,3063,1,18,DelayDiscountingTitrated-3063-1,1987288626,1,60.017,"<?xml version=""1.0""?>\n<Clock xmlns:dt=""urn:schemas-microsoft-com:datatypes""><Description dt:dt=""string"">E-Prime Primary Realtime Clock</Description><StartTime><Timestamp dt:dt=""int"">0</Timestamp><DateUtc dt:dt=""string"">2023-12-16T13:49:44Z</DateUtc></StartTime><FrequencyChanges><FrequencyChange><Frequency dt:dt=""r8"">10000000</Frequency><Timestamp dt:dt=""r8"">3738606789247</Timestamp><Current dt:dt=""r8"">0</Current><DateUtc dt:dt=""string"">2023-12-16T13:49:44Z</DateUtc></FrequencyChange></FrequencyChanges></Clock>\n",2.0.10.252,2.0.10.356,2.0.10.356,Professional,1.0.0.6
discount1,,List4,,,,,,,,,,,,,,,,800,1 month,,30,,,,,,,,,,,,,,,,,,,,,,,,,,,,,,,,,,3,1,1,DelayDiscountingTitrated,12-16-2023,08:49:44,12/16/2023 1:49:44 PM,3063,1,18,DelayDiscountingTitrated-3063-1,1987288626,1,60.017,"<?xml version=""1.0""?>\n<Clock xmlns:dt=""urn:schemas-microsoft-com:datatypes""><Description dt:dt=""string"">E-Prime Primary Realtime Clock</Description><StartTime><Timestamp dt:dt=""int"">0</Timestamp><DateUtc dt:dt=""string"">2023-12-16T13:49:44Z</DateUtc></StartTime><FrequencyChanges><FrequencyChange><Frequency dt:dt=""r8"">10000000</Frequency><Timestamp dt:dt=""r8"">3738606789247</Timestamp><Current dt:dt=""r8"">0</Current><DateUtc dt:dt=""string"">2023-12-16T13:49:44Z</DateUtc></FrequencyChange></FrequencyChanges></Clock>\n",2.0.10.252,2.0.10.356,2.0.10.356,Professional,1.0.0.6
onemthproc,,List1,,,,,,,,,,,,,,,,,,,,,,2,1,6,6,,,,,,,,,,,,,,,,,,,,,,,,,,,,,,,DelayDiscountingTitrated,12-16-2023,08:49:44,12/16/2023 1:49:44 PM,3063,1,18,DelayDiscountingTitrated-3063-1,1987288626,1,60.017,"<?xml version=""1.0""?>\n<Clock xmlns:dt=""urn:schemas-microsoft-com:datatypes""><Description dt:dt=""string"">E-Prime Primary Realtime Clock</Description><StartTime><Timestamp dt:dt=""int"">0</Timestamp><DateUtc dt:dt=""string"">2023-12-16T13:49:44Z</DateUtc></StartTime><FrequencyChanges><FrequencyChange><Frequency dt:dt=""r8"">10000000</Frequency><Timestamp dt:dt=""r8"">3738606789247</Timestamp><Current dt:dt=""r8"">0</Current><DateUtc dt:dt=""string"">2023-12-16T13:49:44Z</DateUtc></FrequencyChange></FrequencyChanges></Clock>\n",2.0.10.252,2.0.10.356,2.0.10.356,Professional,1.0.0.6
,,,,,,,,,,,,,,,,,,,,,,,,,,,,,,,,,,,,,,,,,,,,,,,,,,,,,,,,,,DelayDiscountingTitrated,12-16-2023,08:49:44,12/16/2023 1:49:44 PM,3063,1,18,DelayDiscountingTitrated-3063-1,1987288626,1,60.017,"<?xml version=""1.0""?>\n<Clock xmlns:dt=""urn:schemas-microsoft-com:datatypes""><Description dt:dt=""string"">E-Prime Primary Realtime Clock</Description><StartTime><Timestamp dt:dt=""int"">0</Timestamp><DateUtc dt:dt=""string"">2023-12-16T13:49:44Z</DateUtc></StartTime><FrequencyChanges><FrequencyChange><Frequency dt:dt=""r8"">10000000</Frequency><Timestamp dt:dt=""r8"">3738606789247</Timestamp><Current dt:dt=""r8"">0</Current><DateUtc dt:dt=""string"">2023-12-16T13:49:44Z</DateUtc></FrequencyChange></FrequencyChanges></Clock>\n",2.0.10.252,2.0.10.356,2.0.10.356,Professional,1.0.0.6
