Procedure,List10,Running,List10.Cycle,List10.Sample,Slide2.RT,Slide2.RESP,Slide4.RT,Slide4.RESP,immed3,respprev,prevalue,imstring,Slide1.RT,Slide1.RESP,Slide5.RT,Slide5.RESP,immed5,immed,delaypd,timedays,List5,List5.Cycle,List5.Sample,List1,List1.Cycle,List1.Sample,roundnumber,List11,List11.Cycle,List11.Sample,List6,List6.Cycle,List6.Sample,List9,List9.Cycle,List9.Sample,List4,List4.Cycle,List4.Sample,List12,List12.Cycle,List12.Sample,List7,List7.Cycle,List7.Sample,List2,List2.Cycle,List2.Sample,List3,List3.Cycle,List3.Sample,List13,List13.Cycle,List13.Sample,List8,List8.Cycle,List8.Sample,Experiment,SessionDate,SessionTime,SessionStartDateTimeUtc,Subject,Session,Age,DataFile.Basename,RandomSeed,Group,Display.RefreshRate,Clock.Information,StudioVersion,RuntimeVersion,RuntimeVersionExpected,RuntimeCapabilities,ExperimentVersion
Init2,1,List10,1,1,3138,1,0,,400,1,800,,,,,,,,,,,,,,,,,,,,,,,,,,,,,,,,,,,,,,,,,,,,,,,DelayDiscountingTitrated Backup1,09-22-2023,14:19:06,9/22/2023 6:19:06 PM,3014,1,18,DelayDiscountingTitrated Backup1-3014-1,-2086404605,1,60.017,"<?xml version=""1.0""?>\n<Clock xmlns:dt=""urn:schemas-microsoft-com:datatypes""><Description dt:dt=""string"">E-Prime Primary Realtime Clock</Description><StartTime><Timestamp dt:dt=""int"">0</Timestamp><DateUtc dt:dt=""string"">2023-09-22T18:19:05Z</DateUtc></StartTime><FrequencyChanges><FrequencyChange><Frequency dt:dt=""r8"">10000000</Frequency><Timestamp dt:dt=""r8"">9661587946897</Timestamp><Current dt:dt=""r8"">0</Current><DateUtc dt:dt=""string"">2023-09-22T18:19:05Z</DateUtc></FrequencyChange></FrequencyChanges></Clock>\n",2.0.10.252,2.0.10.356,2.0.10.356,Professional,1.0.0.1
Proc2,2,List10,1,2,,,,,600,3,400,400,2844,3,0,,200,,,,,,,,,,,,,,,,,,,,,,,,,,,,,,,,,,,,,,,,,DelayDiscountingTitrated Backup1,09-22-2023,14:19:06,9/22/2023 6:19:06 PM,3014,1,18,DelayDiscountingTitrated Backup1-3014-1,-2086404605,1,60.017,"<?xml version=""1.0""?>\n<Clock xmlns:dt=""urn:schemas-microsoft-com:datatypes""><Description dt:dt=""string"">E-Prime Primary Realtime Clock</Description><StartTime><Timestamp dt:dt=""int"">0</Timestamp><DateUtc dt:dt=""string"">2023-09-22T18:19:05Z</DateUtc></StartTime><FrequencyChanges><FrequencyChange><Frequency dt:dt=""r8"">10000000</Frequency><Timestamp dt:dt=""r8"">9661587946897</Timestamp><Current dt:dt=""r8"">0</Current><DateUtc dt:dt=""string"">2023-09-22T18:19:05Z</DateUtc></FrequencyChange></FrequencyChanges></Clock>\n",2.0.10.252,2.0.10.356,2.0.10.356,Professional,1.0.0.1
Proc2,3,List10,1,3,,,,,500,1,600,600,2201,1,0,,100,,,,,,,,,,,,,,,,,,,,,,,,,,,,,,,,,,,,,,,,,DelayDiscountingTitrated Backup1,09-22-2023,14:19:06,9/22/2023 6:19:06 PM,3014,1,18,DelayDiscountingTitrated Backup1-3014-1,-2086404605,1,60.017,"<?xml version=""1.0""?>\n<Clock xmlns:dt=""urn:schemas-microsoft-com:datatypes""><Description dt:dt=""string"">E-Prime Primary Realtime Clock</Description><StartTime><Timestamp dt:dt=""int"">0</Timestamp><DateUtc dt:dt=""string"">2023-09-22T18:19:05Z</DateUtc></StartTime><FrequencyChanges><FrequencyChange><Frequency dt:dt=""r8"">10000000</Frequency><Timestamp dt:dt=""r8"">9661587946897</Timestamp><Current dt:dt=""r8"">0</Current><DateUtc dt:dt=""string"">2023-09-22T18:19:05Z</DateUtc></FrequencyChange></FrequencyChanges></Clock>\n",2.0.10.252,2.0.10.356,2.0.10.356,Professional,1.0.0.1
Proc2,4,List10,1,4,,,,,550,3,500,500,1880,3,0,,50,,,,,,,,,,,,,,,,,,,,,,,,,,,,,,,,,,,,,,,,,DelayDiscountingTitrated Backup1,09-22-2023,14:19:06,9/22/2023 6:19:06 PM,3014,1,18,DelayDiscountingTitrated Backup1-3014-1,-2086404605,1,60.017,"<?xml version=""1.0""?>\n<Clock xmlns:dt=""urn:schemas-microsoft-com:datatypes""><Description dt:dt=""string"">E-Prime Primary Realtime Clock</Description><StartTime><Timestamp dt:dt=""int"">0</Timestamp><DateUtc dt:dt=""string"">2023-09-22T18:19:05Z</DateUtc></StartTime><FrequencyChanges><FrequencyChange><Frequency dt:dt=""r8"">10000000</Frequency><Timestamp dt:dt=""r8"">9661587946897</Timestamp><Current dt:dt=""r8"">0</Current><DateUtc dt:dt=""string"">2023-09-22T18:19:05Z</DateUtc></FrequencyChange></FrequencyChanges></Clock>\n",2.0.10.252,2.0.10.356,2.0.10.356,Professional,1.0.0.1
Proc2,5,List10,1,5,,,,,575,3,550,550,7067,3,0,,25,,,,,,,,,,,,,,,,,,,,,,,,,,,,,,,,,,,,,,,,,DelayDiscountingTitrated Backup1,09-22-2023,14:19:06,9/22/2023 6:19:06 PM,3014,1,18,DelayDiscountingTitrated Backup1-3014-1,-2086404605,1,60.017,"<?xml version=""1.0""?>\n<Clock xmlns:dt=""urn:schemas-microsoft-com:datatypes""><Description dt:dt=""string"">E-Prime Primary Realtime Clock</Description><StartTime><Timestamp dt:dt=""int"">0</Timestamp><DateUtc dt:dt=""string"">2023-09-22T18:19:05Z</DateUtc></StartTime><FrequencyChanges><FrequencyChange><Frequency dt:dt=""r8"">10000000</Frequency><Timestamp dt:dt=""r8"">9661587946897</Timestamp><Current dt:dt=""r8"">0</Current><DateUtc dt:dt=""string"">2023-09-22T18:19:05Z</DateUtc></FrequencyChange></FrequencyChanges></Clock>\n",2.0.10.252,2.0.10.356,2.0.10.356,Professional,1.0.0.1
Proc2,6,List10,1,6,,,,,587,3,575,575,3145,3,0,,12,,,,,,,,,,,,,,,,,,,,,,,,,,,,,,,,,,,,,,,,,DelayDiscountingTitrated Backup1,09-22-2023,14:19:06,9/22/2023 6:19:06 PM,3014,1,18,DelayDiscountingTitrated Backup1-3014-1,-2086404605,1,60.017,"<?xml version=""1.0""?>\n<Clock xmlns:dt=""urn:schemas-microsoft-com:datatypes""><Description dt:dt=""string"">E-Prime Primary Realtime Clock</Description><StartTime><Timestamp dt:dt=""int"">0</Timestamp><DateUtc dt:dt=""string"">2023-09-22T18:19:05Z</DateUtc></StartTime><FrequencyChanges><FrequencyChange><Frequency dt:dt=""r8"">10000000</Frequency><Timestamp dt:dt=""r8"">9661587946897</Timestamp><Current dt:dt=""r8"">0</Current><DateUtc dt:dt=""string"">2023-09-22T18:19:05Z</DateUtc></FrequencyChange></FrequencyChanges></Clock>\n",2.0.10.252,2.0.10.356,2.0.10.356,Professional,1.0.0.1
Proc2,7,List10,1,7,,,,,593,3,587,587,1322,3,0,,6,,,,,,,,,,,,,,,,,,,,,,,,,,,,,,,,,,,,,,,,,DelayDiscountingTitrated Backup1,09-22-2023,14:19:06,9/22/2023 6:19:06 PM,3014,1,18,DelayDiscountingTitrated Backup1-3014-1,-2086404605,1,60.017,"<?xml version=""1.0""?>\n<Clock xmlns:dt=""urn:schemas-microsoft-com:datatypes""><Description dt:dt=""string"">E-Prime Primary Realtime Clock</Description><StartTime><Timestamp dt:dt=""int"">0</Timestamp><DateUtc dt:dt=""string"">2023-09-22T18:19:05Z</DateUtc></StartTime><FrequencyChanges><FrequencyChange><Frequency dt:dt=""r8"">10000000</Frequency><Timestamp dt:dt=""r8"">9661587946897</Timestamp><Current dt:dt=""r8"">0</Current><DateUtc dt:dt=""string"">2023-09-22T18:19:05Z</DateUtc></FrequencyChange></FrequencyChanges></Clock>\n",2.0.10.252,2.0.10.356,2.0.10.356,Professional,1.0.0.1
Proc2,8,List10,1,8,,,,,596,3,593,593,828,3,0,,3,,,,,,,,,,,,,,,,,,,,,,,,,,,,,,,,,,,,,,,,,DelayDiscountingTitrated Backup1,09-22-2023,14:19:06,9/22/2023 6:19:06 PM,3014,1,18,DelayDiscountingTitrated Backup1-3014-1,-2086404605,1,60.017,"<?xml version=""1.0""?>\n<Clock xmlns:dt=""urn:schemas-microsoft-com:datatypes""><Description dt:dt=""string"">E-Prime Primary Realtime Clock</Description><StartTime><Timestamp dt:dt=""int"">0</Timestamp><DateUtc dt:dt=""string"">2023-09-22T18:19:05Z</DateUtc></StartTime><FrequencyChanges><FrequencyChange><Frequency dt:dt=""r8"">10000000</Frequency><Timestamp dt:dt=""r8"">9661587946897</Timestamp><Current dt:dt=""r8"">0</Current><DateUtc dt:dt=""string"">2023-09-22T18:19:05Z</DateUtc></FrequencyChange></FrequencyChanges></Clock>\n",2.0.10.252,2.0.10.356,2.0.10.356,Professional,1.0.0.1
Proc2,9,List10,1,9,,,,,598,3,596,596,1018,3,0,,2,,,,,,,,,,,,,,,,,,,,,,,,,,,,,,,,,,,,,,,,,DelayDiscountingTitrated Backup1,09-22-2023,14:19:06,9/22/2023 6:19:06 PM,3014,1,18,DelayDiscountingTitrated Backup1-3014-1,-2086404605,1,60.017,"<?xml version=""1.0""?>\n<Clock xmlns:dt=""urn:schemas-microsoft-com:datatypes""><Description dt:dt=""string"">E-Prime Primary Realtime Clock</Description><StartTime><Timestamp dt:dt=""int"">0</Timestamp><DateUtc dt:dt=""string"">2023-09-22T18:19:05Z</DateUtc></StartTime><FrequencyChanges><FrequencyChange><Frequency dt:dt=""r8"">10000000</Frequency><Timestamp dt:dt=""r8"">9661587946897</Timestamp><Current dt:dt=""r8"">0</Current><DateUtc dt:dt=""string"">2023-09-22T18:19:05Z</DateUtc></FrequencyChange></FrequencyChanges></Clock>\n",2.0.10.252,2.0.10.356,2.0.10.356,Professional,1.0.0.1
Proc2,10,List10,1,10,,,,,599,3,598,598,920,3,0,,1,,,,,,,,,,,,,,,,,,,,,,,,,,,,,,,,,,,,,,,,,DelayDiscountingTitrated Backup1,09-22-2023,14:19:06,9/22/2023 6:19:06 PM,3014,1,18,DelayDiscountingTitrated Backup1-3014-1,-2086404605,1,60.017,"<?xml version=""1.0""?>\n<Clock xmlns:dt=""urn:schemas-microsoft-com:datatypes""><Description dt:dt=""string"">E-Prime Primary Realtime Clock</Description><StartTime><Timestamp dt:dt=""int"">0</Timestamp><DateUtc dt:dt=""string"">2023-09-22T18:19:05Z</DateUtc></StartTime><FrequencyChanges><FrequencyChange><Frequency dt:dt=""r8"">10000000</Frequency><Timestamp dt:dt=""r8"">9661587946897</Timestamp><Current dt:dt=""r8"">0</Current><DateUtc dt:dt=""string"">2023-09-22T18:19:05Z</DateUtc></FrequencyChange></FrequencyChanges></Clock>\n",2.0.10.252,2.0.10.356,2.0.10.356,Professional,1.0.0.1
Proc2,11,List10,1,11,,,,,599,3,598,599,866,3,0,,,,,,,,,,,,,,,,,,,,,,,,,,,,,,,,,,,,,,,,,,,DelayDiscountingTitrated Backup1,09-22-2023,14:19:06,9/22/2023 6:19:06 PM,3014,1,18,DelayDiscountingTitrated Backup1-3014-1,-2086404605,1,60.017,"<?xml version=""1.0""?>\n<Clock xmlns:dt=""urn:schemas-microsoft-com:datatypes""><Description dt:dt=""string"">E-Prime Primary Realtime Clock</Description><StartTime><Timestamp dt:dt=""int"">0</Timestamp><DateUtc dt:dt=""string"">2023-09-22T18:19:05Z</DateUtc></StartTime><FrequencyChanges><FrequencyChange><Frequency dt:dt=""r8"">10000000</Frequency><Timestamp dt:dt=""r8"">9661587946897</Timestamp><Current dt:dt=""r8"">0</Current><DateUtc dt:dt=""string"">2023-09-22T18:19:05Z</DateUtc></FrequencyChange></FrequencyChanges></Clock>\n",2.0.10.252,2.0.10.356,2.0.10.356,Professional,1.0.0.1
discount2,,List5,,,,,,,,,,,,,,,,800,6 month,180,3,1,1,,,,,,,,,,,,,,,,,,,,,,,,,,,,,,,,,,,DelayDiscountingTitrated Backup1,09-22-2023,14:19:06,9/22/2023 6:19:06 PM,3014,1,18,DelayDiscountingTitrated Backup1-3014-1,-2086404605,1,60.017,"<?xml version=""1.0""?>\n<Clock xmlns:dt=""urn:schemas-microsoft-com:datatypes""><Description dt:dt=""string"">E-Prime Primary Realtime Clock</Description><StartTime><Timestamp dt:dt=""int"">0</Timestamp><DateUtc dt:dt=""string"">2023-09-22T18:19:05Z</DateUtc></StartTime><FrequencyChanges><FrequencyChange><Frequency dt:dt=""r8"">10000000</Frequency><Timestamp dt:dt=""r8"">9661587946897</Timestamp><Current dt:dt=""r8"">0</Current><DateUtc dt:dt=""string"">2023-09-22T18:19:05Z</DateUtc></FrequencyChange></FrequencyChanges></Clock>\n",2.0.10.252,2.0.10.356,2.0.10.356,Professional,1.0.0.1
sixmthproc,,List1,,,,,,,,,,,,,,,,,,,,,,3,1,1,1,,,,,,,,,,,,,,,,,,,,,,,,,,,,,,,DelayDiscountingTitrated Backup1,09-22-2023,14:19:06,9/22/2023 6:19:06 PM,3014,1,18,DelayDiscountingTitrated Backup1-3014-1,-2086404605,1,60.017,"<?xml version=""1.0""?>\n<Clock xmlns:dt=""urn:schemas-microsoft-com:datatypes""><Description dt:dt=""string"">E-Prime Primary Realtime Clock</Description><StartTime><Timestamp dt:dt=""int"">0</Timestamp><DateUtc dt:dt=""string"">2023-09-22T18:19:05Z</DateUtc></StartTime><FrequencyChanges><FrequencyChange><Frequency dt:dt=""r8"">10000000</Frequency><Timestamp dt:dt=""r8"">9661587946897</Timestamp><Current dt:dt=""r8"">0</Current><DateUtc dt:dt=""string"">2023-09-22T18:19:05Z</DateUtc></FrequencyChange></FrequencyChanges></Clock>\n",2.0.10.252,2.0.10.356,2.0.10.356,Professional,1.0.0.1
Init3,,List11,,,3338,1,0,,400,1,800,,,,,,,,,,,,,,,,,1,1,1,,,,,,,,,,,,,,,,,,,,,,,,,,,,DelayDiscountingTitrated Backup1,09-22-2023,14:19:06,9/22/2023 6:19:06 PM,3014,1,18,DelayDiscountingTitrated Backup1-3014-1,-2086404605,1,60.017,"<?xml version=""1.0""?>\n<Clock xmlns:dt=""urn:schemas-microsoft-com:datatypes""><Description dt:dt=""string"">E-Prime Primary Realtime Clock</Description><StartTime><Timestamp dt:dt=""int"">0</Timestamp><DateUtc dt:dt=""string"">2023-09-22T18:19:05Z</DateUtc></StartTime><FrequencyChanges><FrequencyChange><Frequency dt:dt=""r8"">10000000</Frequency><Timestamp dt:dt=""r8"">9661587946897</Timestamp><Current dt:dt=""r8"">0</Current><DateUtc dt:dt=""string"">2023-09-22T18:19:05Z</DateUtc></FrequencyChange></FrequencyChanges></Clock>\n",2.0.10.252,2.0.10.356,2.0.10.356,Professional,1.0.0.1
Proc3,,List11,,,,,,,600,3,400,400,7044,3,0,,200,,,,,,,,,,,2,1,2,,,,,,,,,,,,,,,,,,,,,,,,,,,,DelayDiscountingTitrated Backup1,09-22-2023,14:19:06,9/22/2023 6:19:06 PM,3014,1,18,DelayDiscountingTitrated Backup1-3014-1,-2086404605,1,60.017,"<?xml version=""1.0""?>\n<Clock xmlns:dt=""urn:schemas-microsoft-com:datatypes""><Description dt:dt=""string"">E-Prime Primary Realtime Clock</Description><StartTime><Timestamp dt:dt=""int"">0</Timestamp><DateUtc dt:dt=""string"">2023-09-22T18:19:05Z</DateUtc></StartTime><FrequencyChanges><FrequencyChange><Frequency dt:dt=""r8"">10000000</Frequency><Timestamp dt:dt=""r8"">9661587946897</Timestamp><Current dt:dt=""r8"">0</Current><DateUtc dt:dt=""string"">2023-09-22T18:19:05Z</DateUtc></FrequencyChange></FrequencyChanges></Clock>\n",2.0.10.252,2.0.10.356,2.0.10.356,Professional,1.0.0.1
Proc3,,List11,,,,,,,500,1,600,600,5715,1,0,,100,,,,,,,,,,,3,1,3,,,,,,,,,,,,,,,,,,,,,,,,,,,,DelayDiscountingTitrated Backup1,09-22-2023,14:19:06,9/22/2023 6:19:06 PM,3014,1,18,DelayDiscountingTitrated Backup1-3014-1,-2086404605,1,60.017,"<?xml version=""1.0""?>\n<Clock xmlns:dt=""urn:schemas-microsoft-com:datatypes""><Description dt:dt=""string"">E-Prime Primary Realtime Clock</Description><StartTime><Timestamp dt:dt=""int"">0</Timestamp><DateUtc dt:dt=""string"">2023-09-22T18:19:05Z</DateUtc></StartTime><FrequencyChanges><FrequencyChange><Frequency dt:dt=""r8"">10000000</Frequency><Timestamp dt:dt=""r8"">9661587946897</Timestamp><Current dt:dt=""r8"">0</Current><DateUtc dt:dt=""string"">2023-09-22T18:19:05Z</DateUtc></FrequencyChange></FrequencyChanges></Clock>\n",2.0.10.252,2.0.10.356,2.0.10.356,Professional,1.0.0.1
Proc3,,List11,,,,,,,550,3,500,500,1046,3,0,,50,,,,,,,,,,,4,1,4,,,,,,,,,,,,,,,,,,,,,,,,,,,,DelayDiscountingTitrated Backup1,09-22-2023,14:19:06,9/22/2023 6:19:06 PM,3014,1,18,DelayDiscountingTitrated Backup1-3014-1,-2086404605,1,60.017,"<?xml version=""1.0""?>\n<Clock xmlns:dt=""urn:schemas-microsoft-com:datatypes""><Description dt:dt=""string"">E-Prime Primary Realtime Clock</Description><StartTime><Timestamp dt:dt=""int"">0</Timestamp><DateUtc dt:dt=""string"">2023-09-22T18:19:05Z</DateUtc></StartTime><FrequencyChanges><FrequencyChange><Frequency dt:dt=""r8"">10000000</Frequency><Timestamp dt:dt=""r8"">9661587946897</Timestamp><Current dt:dt=""r8"">0</Current><DateUtc dt:dt=""string"">2023-09-22T18:19:05Z</DateUtc></FrequencyChange></FrequencyChanges></Clock>\n",2.0.10.252,2.0.10.356,2.0.10.356,Professional,1.0.0.1
Proc3,,List11,,,,,,,575,3,550,550,963,3,0,,25,,,,,,,,,,,5,1,5,,,,,,,,,,,,,,,,,,,,,,,,,,,,DelayDiscountingTitrated Backup1,09-22-2023,14:19:06,9/22/2023 6:19:06 PM,3014,1,18,DelayDiscountingTitrated Backup1-3014-1,-2086404605,1,60.017,"<?xml version=""1.0""?>\n<Clock xmlns:dt=""urn:schemas-microsoft-com:datatypes""><Description dt:dt=""string"">E-Prime Primary Realtime Clock</Description><StartTime><Timestamp dt:dt=""int"">0</Timestamp><DateUtc dt:dt=""string"">2023-09-22T18:19:05Z</DateUtc></StartTime><FrequencyChanges><FrequencyChange><Frequency dt:dt=""r8"">10000000</Frequency><Timestamp dt:dt=""r8"">9661587946897</Timestamp><Current dt:dt=""r8"">0</Current><DateUtc dt:dt=""string"">2023-09-22T18:19:05Z</DateUtc></FrequencyChange></FrequencyChanges></Clock>\n",2.0.10.252,2.0.10.356,2.0.10.356,Professional,1.0.0.1
Proc3,,List11,,,,,,,587,3,575,575,307,3,0,,12,,,,,,,,,,,6,1,6,,,,,,,,,,,,,,,,,,,,,,,,,,,,DelayDiscountingTitrated Backup1,09-22-2023,14:19:06,9/22/2023 6:19:06 PM,3014,1,18,DelayDiscountingTitrated Backup1-3014-1,-2086404605,1,60.017,"<?xml version=""1.0""?>\n<Clock xmlns:dt=""urn:schemas-microsoft-com:datatypes""><Description dt:dt=""string"">E-Prime Primary Realtime Clock</Description><StartTime><Timestamp dt:dt=""int"">0</Timestamp><DateUtc dt:dt=""string"">2023-09-22T18:19:05Z</DateUtc></StartTime><FrequencyChanges><FrequencyChange><Frequency dt:dt=""r8"">10000000</Frequency><Timestamp dt:dt=""r8"">9661587946897</Timestamp><Current dt:dt=""r8"">0</Current><DateUtc dt:dt=""string"">2023-09-22T18:19:05Z</DateUtc></FrequencyChange></FrequencyChanges></Clock>\n",2.0.10.252,2.0.10.356,2.0.10.356,Professional,1.0.0.1
Proc3,,List11,,,,,,,593,3,587,587,413,3,0,,6,,,,,,,,,,,7,1,7,,,,,,,,,,,,,,,,,,,,,,,,,,,,DelayDiscountingTitrated Backup1,09-22-2023,14:19:06,9/22/2023 6:19:06 PM,3014,1,18,DelayDiscountingTitrated Backup1-3014-1,-2086404605,1,60.017,"<?xml version=""1.0""?>\n<Clock xmlns:dt=""urn:schemas-microsoft-com:datatypes""><Description dt:dt=""string"">E-Prime Primary Realtime Clock</Description><StartTime><Timestamp dt:dt=""int"">0</Timestamp><DateUtc dt:dt=""string"">2023-09-22T18:19:05Z</DateUtc></StartTime><FrequencyChanges><FrequencyChange><Frequency dt:dt=""r8"">10000000</Frequency><Timestamp dt:dt=""r8"">9661587946897</Timestamp><Current dt:dt=""r8"">0</Current><DateUtc dt:dt=""string"">2023-09-22T18:19:05Z</DateUtc></FrequencyChange></FrequencyChanges></Clock>\n",2.0.10.252,2.0.10.356,2.0.10.356,Professional,1.0.0.1
Proc3,,List11,,,,,,,596,3,593,593,587,3,0,,3,,,,,,,,,,,8,1,8,,,,,,,,,,,,,,,,,,,,,,,,,,,,DelayDiscountingTitrated Backup1,09-22-2023,14:19:06,9/22/2023 6:19:06 PM,3014,1,18,DelayDiscountingTitrated Backup1-3014-1,-2086404605,1,60.017,"<?xml version=""1.0""?>\n<Clock xmlns:dt=""urn:schemas-microsoft-com:datatypes""><Description dt:dt=""string"">E-Prime Primary Realtime Clock</Description><StartTime><Timestamp dt:dt=""int"">0</Timestamp><DateUtc dt:dt=""string"">2023-09-22T18:19:05Z</DateUtc></StartTime><FrequencyChanges><FrequencyChange><Frequency dt:dt=""r8"">10000000</Frequency><Timestamp dt:dt=""r8"">9661587946897</Timestamp><Current dt:dt=""r8"">0</Current><DateUtc dt:dt=""string"">2023-09-22T18:19:05Z</DateUtc></FrequencyChange></FrequencyChanges></Clock>\n",2.0.10.252,2.0.10.356,2.0.10.356,Professional,1.0.0.1
Proc3,,List11,,,,,,,598,3,596,596,682,3,0,,2,,,,,,,,,,,9,1,9,,,,,,,,,,,,,,,,,,,,,,,,,,,,DelayDiscountingTitrated Backup1,09-22-2023,14:19:06,9/22/2023 6:19:06 PM,3014,1,18,DelayDiscountingTitrated Backup1-3014-1,-2086404605,1,60.017,"<?xml version=""1.0""?>\n<Clock xmlns:dt=""urn:schemas-microsoft-com:datatypes""><Description dt:dt=""string"">E-Prime Primary Realtime Clock</Description><StartTime><Timestamp dt:dt=""int"">0</Timestamp><DateUtc dt:dt=""string"">2023-09-22T18:19:05Z</DateUtc></StartTime><FrequencyChanges><FrequencyChange><Frequency dt:dt=""r8"">10000000</Frequency><Timestamp dt:dt=""r8"">9661587946897</Timestamp><Current dt:dt=""r8"">0</Current><DateUtc dt:dt=""string"">2023-09-22T18:19:05Z</DateUtc></FrequencyChange></FrequencyChanges></Clock>\n",2.0.10.252,2.0.10.356,2.0.10.356,Professional,1.0.0.1
Proc3,,List11,,,,,,,599,3,598,598,357,3,0,,1,,,,,,,,,,,10,1,10,,,,,,,,,,,,,,,,,,,,,,,,,,,,DelayDiscountingTitrated Backup1,09-22-2023,14:19:06,9/22/2023 6:19:06 PM,3014,1,18,DelayDiscountingTitrated Backup1-3014-1,-2086404605,1,60.017,"<?xml version=""1.0""?>\n<Clock xmlns:dt=""urn:schemas-microsoft-com:datatypes""><Description dt:dt=""string"">E-Prime Primary Realtime Clock</Description><StartTime><Timestamp dt:dt=""int"">0</Timestamp><DateUtc dt:dt=""string"">2023-09-22T18:19:05Z</DateUtc></StartTime><FrequencyChanges><FrequencyChange><Frequency dt:dt=""r8"">10000000</Frequency><Timestamp dt:dt=""r8"">9661587946897</Timestamp><Current dt:dt=""r8"">0</Current><DateUtc dt:dt=""string"">2023-09-22T18:19:05Z</DateUtc></FrequencyChange></FrequencyChanges></Clock>\n",2.0.10.252,2.0.10.356,2.0.10.356,Professional,1.0.0.1
Proc3,,List11,,,,,,,599,3,598,599,550,3,0,,,,,,,,,,,,,11,1,11,,,,,,,,,,,,,,,,,,,,,,,,,,,,DelayDiscountingTitrated Backup1,09-22-2023,14:19:06,9/22/2023 6:19:06 PM,3014,1,18,DelayDiscountingTitrated Backup1-3014-1,-2086404605,1,60.017,"<?xml version=""1.0""?>\n<Clock xmlns:dt=""urn:schemas-microsoft-com:datatypes""><Description dt:dt=""string"">E-Prime Primary Realtime Clock</Description><StartTime><Timestamp dt:dt=""int"">0</Timestamp><DateUtc dt:dt=""string"">2023-09-22T18:19:05Z</DateUtc></StartTime><FrequencyChanges><FrequencyChange><Frequency dt:dt=""r8"">10000000</Frequency><Timestamp dt:dt=""r8"">9661587946897</Timestamp><Current dt:dt=""r8"">0</Current><DateUtc dt:dt=""string"">2023-09-22T18:19:05Z</DateUtc></FrequencyChange></FrequencyChanges></Clock>\n",2.0.10.252,2.0.10.356,2.0.10.356,Professional,1.0.0.1
discount3,,List6,,,,,,,,,,,,,,,,800,1 year,365,,,,,,,,,,,3,1,1,,,,,,,,,,,,,,,,,,,,,,,,,DelayDiscountingTitrated Backup1,09-22-2023,14:19:06,9/22/2023 6:19:06 PM,3014,1,18,DelayDiscountingTitrated Backup1-3014-1,-2086404605,1,60.017,"<?xml version=""1.0""?>\n<Clock xmlns:dt=""urn:schemas-microsoft-com:datatypes""><Description dt:dt=""string"">E-Prime Primary Realtime Clock</Description><StartTime><Timestamp dt:dt=""int"">0</Timestamp><DateUtc dt:dt=""string"">2023-09-22T18:19:05Z</DateUtc></StartTime><FrequencyChanges><FrequencyChange><Frequency dt:dt=""r8"">10000000</Frequency><Timestamp dt:dt=""r8"">9661587946897</Timestamp><Current dt:dt=""r8"">0</Current><DateUtc dt:dt=""string"">2023-09-22T18:19:05Z</DateUtc></FrequencyChange></FrequencyChanges></Clock>\n",2.0.10.252,2.0.10.356,2.0.10.356,Professional,1.0.0.1
oneyearproc,,List1,,,,,,,,,,,,,,,,,,,,,,4,1,2,2,,,,,,,,,,,,,,,,,,,,,,,,,,,,,,,DelayDiscountingTitrated Backup1,09-22-2023,14:19:06,9/22/2023 6:19:06 PM,3014,1,18,DelayDiscountingTitrated Backup1-3014-1,-2086404605,1,60.017,"<?xml version=""1.0""?>\n<Clock xmlns:dt=""urn:schemas-microsoft-com:datatypes""><Description dt:dt=""string"">E-Prime Primary Realtime Clock</Description><StartTime><Timestamp dt:dt=""int"">0</Timestamp><DateUtc dt:dt=""string"">2023-09-22T18:19:05Z</DateUtc></StartTime><FrequencyChanges><FrequencyChange><Frequency dt:dt=""r8"">10000000</Frequency><Timestamp dt:dt=""r8"">9661587946897</Timestamp><Current dt:dt=""r8"">0</Current><DateUtc dt:dt=""string"">2023-09-22T18:19:05Z</DateUtc></FrequencyChange></FrequencyChanges></Clock>\n",2.0.10.252,2.0.10.356,2.0.10.356,Professional,1.0.0.1
Init1,,List9,,,7880,1,0,,400,1,800,,,,,,,,,,,,,,,,,,,,,,,1,1,1,,,,,,,,,,,,,,,,,,,,,,DelayDiscountingTitrated Backup1,09-22-2023,14:19:06,9/22/2023 6:19:06 PM,3014,1,18,DelayDiscountingTitrated Backup1-3014-1,-2086404605,1,60.017,"<?xml version=""1.0""?>\n<Clock xmlns:dt=""urn:schemas-microsoft-com:datatypes""><Description dt:dt=""string"">E-Prime Primary Realtime Clock</Description><StartTime><Timestamp dt:dt=""int"">0</Timestamp><DateUtc dt:dt=""string"">2023-09-22T18:19:05Z</DateUtc></StartTime><FrequencyChanges><FrequencyChange><Frequency dt:dt=""r8"">10000000</Frequency><Timestamp dt:dt=""r8"">9661587946897</Timestamp><Current dt:dt=""r8"">0</Current><DateUtc dt:dt=""string"">2023-09-22T18:19:05Z</DateUtc></FrequencyChange></FrequencyChanges></Clock>\n",2.0.10.252,2.0.10.356,2.0.10.356,Professional,1.0.0.1
Proc1,,List9,,,,,,,600,3,400,400,2309,3,0,,200,,,,,,,,,,,,,,,,,2,1,2,,,,,,,,,,,,,,,,,,,,,,DelayDiscountingTitrated Backup1,09-22-2023,14:19:06,9/22/2023 6:19:06 PM,3014,1,18,DelayDiscountingTitrated Backup1-3014-1,-2086404605,1,60.017,"<?xml version=""1.0""?>\n<Clock xmlns:dt=""urn:schemas-microsoft-com:datatypes""><Description dt:dt=""string"">E-Prime Primary Realtime Clock</Description><StartTime><Timestamp dt:dt=""int"">0</Timestamp><DateUtc dt:dt=""string"">2023-09-22T18:19:05Z</DateUtc></StartTime><FrequencyChanges><FrequencyChange><Frequency dt:dt=""r8"">10000000</Frequency><Timestamp dt:dt=""r8"">9661587946897</Timestamp><Current dt:dt=""r8"">0</Current><DateUtc dt:dt=""string"">2023-09-22T18:19:05Z</DateUtc></FrequencyChange></FrequencyChanges></Clock>\n",2.0.10.252,2.0.10.356,2.0.10.356,Professional,1.0.0.1
Proc1,,List9,,,,,,,700,3,600,600,1481,3,0,,100,,,,,,,,,,,,,,,,,3,1,3,,,,,,,,,,,,,,,,,,,,,,DelayDiscountingTitrated Backup1,09-22-2023,14:19:06,9/22/2023 6:19:06 PM,3014,1,18,DelayDiscountingTitrated Backup1-3014-1,-2086404605,1,60.017,"<?xml version=""1.0""?>\n<Clock xmlns:dt=""urn:schemas-microsoft-com:datatypes""><Description dt:dt=""string"">E-Prime Primary Realtime Clock</Description><StartTime><Timestamp dt:dt=""int"">0</Timestamp><DateUtc dt:dt=""string"">2023-09-22T18:19:05Z</DateUtc></StartTime><FrequencyChanges><FrequencyChange><Frequency dt:dt=""r8"">10000000</Frequency><Timestamp dt:dt=""r8"">9661587946897</Timestamp><Current dt:dt=""r8"">0</Current><DateUtc dt:dt=""string"">2023-09-22T18:19:05Z</DateUtc></FrequencyChange></FrequencyChanges></Clock>\n",2.0.10.252,2.0.10.356,2.0.10.356,Professional,1.0.0.1
Proc1,,List9,,,,,,,650,1,700,700,1612,1,0,,50,,,,,,,,,,,,,,,,,4,1,4,,,,,,,,,,,,,,,,,,,,,,DelayDiscountingTitrated Backup1,09-22-2023,14:19:06,9/22/2023 6:19:06 PM,3014,1,18,DelayDiscountingTitrated Backup1-3014-1,-2086404605,1,60.017,"<?xml version=""1.0""?>\n<Clock xmlns:dt=""urn:schemas-microsoft-com:datatypes""><Description dt:dt=""string"">E-Prime Primary Realtime Clock</Description><StartTime><Timestamp dt:dt=""int"">0</Timestamp><DateUtc dt:dt=""string"">2023-09-22T18:19:05Z</DateUtc></StartTime><FrequencyChanges><FrequencyChange><Frequency dt:dt=""r8"">10000000</Frequency><Timestamp dt:dt=""r8"">9661587946897</Timestamp><Current dt:dt=""r8"">0</Current><DateUtc dt:dt=""string"">2023-09-22T18:19:05Z</DateUtc></FrequencyChange></FrequencyChanges></Clock>\n",2.0.10.252,2.0.10.356,2.0.10.356,Professional,1.0.0.1
Proc1,,List9,,,,,,,625,1,650,650,5338,1,0,,25,,,,,,,,,,,,,,,,,5,1,5,,,,,,,,,,,,,,,,,,,,,,DelayDiscountingTitrated Backup1,09-22-2023,14:19:06,9/22/2023 6:19:06 PM,3014,1,18,DelayDiscountingTitrated Backup1-3014-1,-2086404605,1,60.017,"<?xml version=""1.0""?>\n<Clock xmlns:dt=""urn:schemas-microsoft-com:datatypes""><Description dt:dt=""string"">E-Prime Primary Realtime Clock</Description><StartTime><Timestamp dt:dt=""int"">0</Timestamp><DateUtc dt:dt=""string"">2023-09-22T18:19:05Z</DateUtc></StartTime><FrequencyChanges><FrequencyChange><Frequency dt:dt=""r8"">10000000</Frequency><Timestamp dt:dt=""r8"">9661587946897</Timestamp><Current dt:dt=""r8"">0</Current><DateUtc dt:dt=""string"">2023-09-22T18:19:05Z</DateUtc></FrequencyChange></FrequencyChanges></Clock>\n",2.0.10.252,2.0.10.356,2.0.10.356,Professional,1.0.0.1
Proc1,,List9,,,,,,,613,1,625,625,2117,1,0,,12,,,,,,,,,,,,,,,,,6,1,6,,,,,,,,,,,,,,,,,,,,,,DelayDiscountingTitrated Backup1,09-22-2023,14:19:06,9/22/2023 6:19:06 PM,3014,1,18,DelayDiscountingTitrated Backup1-3014-1,-2086404605,1,60.017,"<?xml version=""1.0""?>\n<Clock xmlns:dt=""urn:schemas-microsoft-com:datatypes""><Description dt:dt=""string"">E-Prime Primary Realtime Clock</Description><StartTime><Timestamp dt:dt=""int"">0</Timestamp><DateUtc dt:dt=""string"">2023-09-22T18:19:05Z</DateUtc></StartTime><FrequencyChanges><FrequencyChange><Frequency dt:dt=""r8"">10000000</Frequency><Timestamp dt:dt=""r8"">9661587946897</Timestamp><Current dt:dt=""r8"">0</Current><DateUtc dt:dt=""string"">2023-09-22T18:19:05Z</DateUtc></FrequencyChange></FrequencyChanges></Clock>\n",2.0.10.252,2.0.10.356,2.0.10.356,Professional,1.0.0.1
Proc1,,List9,,,,,,,607,1,613,613,1303,1,0,,6,,,,,,,,,,,,,,,,,7,1,7,,,,,,,,,,,,,,,,,,,,,,DelayDiscountingTitrated Backup1,09-22-2023,14:19:06,9/22/2023 6:19:06 PM,3014,1,18,DelayDiscountingTitrated Backup1-3014-1,-2086404605,1,60.017,"<?xml version=""1.0""?>\n<Clock xmlns:dt=""urn:schemas-microsoft-com:datatypes""><Description dt:dt=""string"">E-Prime Primary Realtime Clock</Description><StartTime><Timestamp dt:dt=""int"">0</Timestamp><DateUtc dt:dt=""string"">2023-09-22T18:19:05Z</DateUtc></StartTime><FrequencyChanges><FrequencyChange><Frequency dt:dt=""r8"">10000000</Frequency><Timestamp dt:dt=""r8"">9661587946897</Timestamp><Current dt:dt=""r8"">0</Current><DateUtc dt:dt=""string"">2023-09-22T18:19:05Z</DateUtc></FrequencyChange></FrequencyChanges></Clock>\n",2.0.10.252,2.0.10.356,2.0.10.356,Professional,1.0.0.1
Proc1,,List9,,,,,,,610,3,607,607,1298,3,0,,3,,,,,,,,,,,,,,,,,8,1,8,,,,,,,,,,,,,,,,,,,,,,DelayDiscountingTitrated Backup1,09-22-2023,14:19:06,9/22/2023 6:19:06 PM,3014,1,18,DelayDiscountingTitrated Backup1-3014-1,-2086404605,1,60.017,"<?xml version=""1.0""?>\n<Clock xmlns:dt=""urn:schemas-microsoft-com:datatypes""><Description dt:dt=""string"">E-Prime Primary Realtime Clock</Description><StartTime><Timestamp dt:dt=""int"">0</Timestamp><DateUtc dt:dt=""string"">2023-09-22T18:19:05Z</DateUtc></StartTime><FrequencyChanges><FrequencyChange><Frequency dt:dt=""r8"">10000000</Frequency><Timestamp dt:dt=""r8"">9661587946897</Timestamp><Current dt:dt=""r8"">0</Current><DateUtc dt:dt=""string"">2023-09-22T18:19:05Z</DateUtc></FrequencyChange></FrequencyChanges></Clock>\n",2.0.10.252,2.0.10.356,2.0.10.356,Professional,1.0.0.1
Proc1,,List9,,,,,,,612,3,610,610,1804,3,0,,2,,,,,,,,,,,,,,,,,9,1,9,,,,,,,,,,,,,,,,,,,,,,DelayDiscountingTitrated Backup1,09-22-2023,14:19:06,9/22/2023 6:19:06 PM,3014,1,18,DelayDiscountingTitrated Backup1-3014-1,-2086404605,1,60.017,"<?xml version=""1.0""?>\n<Clock xmlns:dt=""urn:schemas-microsoft-com:datatypes""><Description dt:dt=""string"">E-Prime Primary Realtime Clock</Description><StartTime><Timestamp dt:dt=""int"">0</Timestamp><DateUtc dt:dt=""string"">2023-09-22T18:19:05Z</DateUtc></StartTime><FrequencyChanges><FrequencyChange><Frequency dt:dt=""r8"">10000000</Frequency><Timestamp dt:dt=""r8"">9661587946897</Timestamp><Current dt:dt=""r8"">0</Current><DateUtc dt:dt=""string"">2023-09-22T18:19:05Z</DateUtc></FrequencyChange></FrequencyChanges></Clock>\n",2.0.10.252,2.0.10.356,2.0.10.356,Professional,1.0.0.1
Proc1,,List9,,,,,,,613,3,612,612,2195,3,0,,1,,,,,,,,,,,,,,,,,10,1,10,,,,,,,,,,,,,,,,,,,,,,DelayDiscountingTitrated Backup1,09-22-2023,14:19:06,9/22/2023 6:19:06 PM,3014,1,18,DelayDiscountingTitrated Backup1-3014-1,-2086404605,1,60.017,"<?xml version=""1.0""?>\n<Clock xmlns:dt=""urn:schemas-microsoft-com:datatypes""><Description dt:dt=""string"">E-Prime Primary Realtime Clock</Description><StartTime><Timestamp dt:dt=""int"">0</Timestamp><DateUtc dt:dt=""string"">2023-09-22T18:19:05Z</DateUtc></StartTime><FrequencyChanges><FrequencyChange><Frequency dt:dt=""r8"">10000000</Frequency><Timestamp dt:dt=""r8"">9661587946897</Timestamp><Current dt:dt=""r8"">0</Current><DateUtc dt:dt=""string"">2023-09-22T18:19:05Z</DateUtc></FrequencyChange></FrequencyChanges></Clock>\n",2.0.10.252,2.0.10.356,2.0.10.356,Professional,1.0.0.1
Proc1,,List9,,,,,,,613,3,612,613,1202,3,0,,,,,,,,,,,,,,,,,,,11,1,11,,,,,,,,,,,,,,,,,,,,,,DelayDiscountingTitrated Backup1,09-22-2023,14:19:06,9/22/2023 6:19:06 PM,3014,1,18,DelayDiscountingTitrated Backup1-3014-1,-2086404605,1,60.017,"<?xml version=""1.0""?>\n<Clock xmlns:dt=""urn:schemas-microsoft-com:datatypes""><Description dt:dt=""string"">E-Prime Primary Realtime Clock</Description><StartTime><Timestamp dt:dt=""int"">0</Timestamp><DateUtc dt:dt=""string"">2023-09-22T18:19:05Z</DateUtc></StartTime><FrequencyChanges><FrequencyChange><Frequency dt:dt=""r8"">10000000</Frequency><Timestamp dt:dt=""r8"">9661587946897</Timestamp><Current dt:dt=""r8"">0</Current><DateUtc dt:dt=""string"">2023-09-22T18:19:05Z</DateUtc></FrequencyChange></FrequencyChanges></Clock>\n",2.0.10.252,2.0.10.356,2.0.10.356,Professional,1.0.0.1
discount1,,List4,,,,,,,,,,,,,,,,800,1 month,30,,,,,,,,,,,,,,,,,3,1,1,,,,,,,,,,,,,,,,,,,DelayDiscountingTitrated Backup1,09-22-2023,14:19:06,9/22/2023 6:19:06 PM,3014,1,18,DelayDiscountingTitrated Backup1-3014-1,-2086404605,1,60.017,"<?xml version=""1.0""?>\n<Clock xmlns:dt=""urn:schemas-microsoft-com:datatypes""><Description dt:dt=""string"">E-Prime Primary Realtime Clock</Description><StartTime><Timestamp dt:dt=""int"">0</Timestamp><DateUtc dt:dt=""string"">2023-09-22T18:19:05Z</DateUtc></StartTime><FrequencyChanges><FrequencyChange><Frequency dt:dt=""r8"">10000000</Frequency><Timestamp dt:dt=""r8"">9661587946897</Timestamp><Current dt:dt=""r8"">0</Current><DateUtc dt:dt=""string"">2023-09-22T18:19:05Z</DateUtc></FrequencyChange></FrequencyChanges></Clock>\n",2.0.10.252,2.0.10.356,2.0.10.356,Professional,1.0.0.1
onemthproc,,List1,,,,,,,,,,,,,,,,,,,,,,2,1,3,3,,,,,,,,,,,,,,,,,,,,,,,,,,,,,,,DelayDiscountingTitrated Backup1,09-22-2023,14:19:06,9/22/2023 6:19:06 PM,3014,1,18,DelayDiscountingTitrated Backup1-3014-1,-2086404605,1,60.017,"<?xml version=""1.0""?>\n<Clock xmlns:dt=""urn:schemas-microsoft-com:datatypes""><Description dt:dt=""string"">E-Prime Primary Realtime Clock</Description><StartTime><Timestamp dt:dt=""int"">0</Timestamp><DateUtc dt:dt=""string"">2023-09-22T18:19:05Z</DateUtc></StartTime><FrequencyChanges><FrequencyChange><Frequency dt:dt=""r8"">10000000</Frequency><Timestamp dt:dt=""r8"">9661587946897</Timestamp><Current dt:dt=""r8"">0</Current><DateUtc dt:dt=""string"">2023-09-22T18:19:05Z</DateUtc></FrequencyChange></FrequencyChanges></Clock>\n",2.0.10.252,2.0.10.356,2.0.10.356,Professional,1.0.0.1
Init4,,List12,,,4246,1,0,,250,1,500,,,,,,,,,,,,,,,,,,,,,,,,,,,,,1,1,1,,,,,,,,,,,,,,,,DelayDiscountingTitrated Backup1,09-22-2023,14:19:06,9/22/2023 6:19:06 PM,3014,1,18,DelayDiscountingTitrated Backup1-3014-1,-2086404605,1,60.017,"<?xml version=""1.0""?>\n<Clock xmlns:dt=""urn:schemas-microsoft-com:datatypes""><Description dt:dt=""string"">E-Prime Primary Realtime Clock</Description><StartTime><Timestamp dt:dt=""int"">0</Timestamp><DateUtc dt:dt=""string"">2023-09-22T18:19:05Z</DateUtc></StartTime><FrequencyChanges><FrequencyChange><Frequency dt:dt=""r8"">10000000</Frequency><Timestamp dt:dt=""r8"">9661587946897</Timestamp><Current dt:dt=""r8"">0</Current><DateUtc dt:dt=""string"">2023-09-22T18:19:05Z</DateUtc></FrequencyChange></FrequencyChanges></Clock>\n",2.0.10.252,2.0.10.356,2.0.10.356,Professional,1.0.0.1
Proc4,,List12,,,,,,,125,1,250,250,3156,1,0,,125,,,,,,,,,,,,,,,,,,,,,,,2,1,2,,,,,,,,,,,,,,,,DelayDiscountingTitrated Backup1,09-22-2023,14:19:06,9/22/2023 6:19:06 PM,3014,1,18,DelayDiscountingTitrated Backup1-3014-1,-2086404605,1,60.017,"<?xml version=""1.0""?>\n<Clock xmlns:dt=""urn:schemas-microsoft-com:datatypes""><Description dt:dt=""string"">E-Prime Primary Realtime Clock</Description><StartTime><Timestamp dt:dt=""int"">0</Timestamp><DateUtc dt:dt=""string"">2023-09-22T18:19:05Z</DateUtc></StartTime><FrequencyChanges><FrequencyChange><Frequency dt:dt=""r8"">10000000</Frequency><Timestamp dt:dt=""r8"">9661587946897</Timestamp><Current dt:dt=""r8"">0</Current><DateUtc dt:dt=""string"">2023-09-22T18:19:05Z</DateUtc></FrequencyChange></FrequencyChanges></Clock>\n",2.0.10.252,2.0.10.356,2.0.10.356,Professional,1.0.0.1
Proc4,,List12,,,,,,,187,3,125,125,1109,3,0,,62,,,,,,,,,,,,,,,,,,,,,,,3,1,3,,,,,,,,,,,,,,,,DelayDiscountingTitrated Backup1,09-22-2023,14:19:06,9/22/2023 6:19:06 PM,3014,1,18,DelayDiscountingTitrated Backup1-3014-1,-2086404605,1,60.017,"<?xml version=""1.0""?>\n<Clock xmlns:dt=""urn:schemas-microsoft-com:datatypes""><Description dt:dt=""string"">E-Prime Primary Realtime Clock</Description><StartTime><Timestamp dt:dt=""int"">0</Timestamp><DateUtc dt:dt=""string"">2023-09-22T18:19:05Z</DateUtc></StartTime><FrequencyChanges><FrequencyChange><Frequency dt:dt=""r8"">10000000</Frequency><Timestamp dt:dt=""r8"">9661587946897</Timestamp><Current dt:dt=""r8"">0</Current><DateUtc dt:dt=""string"">2023-09-22T18:19:05Z</DateUtc></FrequencyChange></FrequencyChanges></Clock>\n",2.0.10.252,2.0.10.356,2.0.10.356,Professional,1.0.0.1
Proc4,,List12,,,,,,,218,3,187,187,1544,3,0,,31,,,,,,,,,,,,,,,,,,,,,,,4,1,4,,,,,,,,,,,,,,,,DelayDiscountingTitrated Backup1,09-22-2023,14:19:06,9/22/2023 6:19:06 PM,3014,1,18,DelayDiscountingTitrated Backup1-3014-1,-2086404605,1,60.017,"<?xml version=""1.0""?>\n<Clock xmlns:dt=""urn:schemas-microsoft-com:datatypes""><Description dt:dt=""string"">E-Prime Primary Realtime Clock</Description><StartTime><Timestamp dt:dt=""int"">0</Timestamp><DateUtc dt:dt=""string"">2023-09-22T18:19:05Z</DateUtc></StartTime><FrequencyChanges><FrequencyChange><Frequency dt:dt=""r8"">10000000</Frequency><Timestamp dt:dt=""r8"">9661587946897</Timestamp><Current dt:dt=""r8"">0</Current><DateUtc dt:dt=""string"">2023-09-22T18:19:05Z</DateUtc></FrequencyChange></FrequencyChanges></Clock>\n",2.0.10.252,2.0.10.356,2.0.10.356,Professional,1.0.0.1
Proc4,,List12,,,,,,,234,3,218,218,377,3,0,,16,,,,,,,,,,,,,,,,,,,,,,,5,1,5,,,,,,,,,,,,,,,,DelayDiscountingTitrated Backup1,09-22-2023,14:19:06,9/22/2023 6:19:06 PM,3014,1,18,DelayDiscountingTitrated Backup1-3014-1,-2086404605,1,60.017,"<?xml version=""1.0""?>\n<Clock xmlns:dt=""urn:schemas-microsoft-com:datatypes""><Description dt:dt=""string"">E-Prime Primary Realtime Clock</Description><StartTime><Timestamp dt:dt=""int"">0</Timestamp><DateUtc dt:dt=""string"">2023-09-22T18:19:05Z</DateUtc></StartTime><FrequencyChanges><FrequencyChange><Frequency dt:dt=""r8"">10000000</Frequency><Timestamp dt:dt=""r8"">9661587946897</Timestamp><Current dt:dt=""r8"">0</Current><DateUtc dt:dt=""string"">2023-09-22T18:19:05Z</DateUtc></FrequencyChange></FrequencyChanges></Clock>\n",2.0.10.252,2.0.10.356,2.0.10.356,Professional,1.0.0.1
Proc4,,List12,,,,,,,242,3,234,234,312,3,0,,8,,,,,,,,,,,,,,,,,,,,,,,6,1,6,,,,,,,,,,,,,,,,DelayDiscountingTitrated Backup1,09-22-2023,14:19:06,9/22/2023 6:19:06 PM,3014,1,18,DelayDiscountingTitrated Backup1-3014-1,-2086404605,1,60.017,"<?xml version=""1.0""?>\n<Clock xmlns:dt=""urn:schemas-microsoft-com:datatypes""><Description dt:dt=""string"">E-Prime Primary Realtime Clock</Description><StartTime><Timestamp dt:dt=""int"">0</Timestamp><DateUtc dt:dt=""string"">2023-09-22T18:19:05Z</DateUtc></StartTime><FrequencyChanges><FrequencyChange><Frequency dt:dt=""r8"">10000000</Frequency><Timestamp dt:dt=""r8"">9661587946897</Timestamp><Current dt:dt=""r8"">0</Current><DateUtc dt:dt=""string"">2023-09-22T18:19:05Z</DateUtc></FrequencyChange></FrequencyChanges></Clock>\n",2.0.10.252,2.0.10.356,2.0.10.356,Professional,1.0.0.1
Proc4,,List12,,,,,,,246,3,242,242,594,3,0,,4,,,,,,,,,,,,,,,,,,,,,,,7,1,7,,,,,,,,,,,,,,,,DelayDiscountingTitrated Backup1,09-22-2023,14:19:06,9/22/2023 6:19:06 PM,3014,1,18,DelayDiscountingTitrated Backup1-3014-1,-2086404605,1,60.017,"<?xml version=""1.0""?>\n<Clock xmlns:dt=""urn:schemas-microsoft-com:datatypes""><Description dt:dt=""string"">E-Prime Primary Realtime Clock</Description><StartTime><Timestamp dt:dt=""int"">0</Timestamp><DateUtc dt:dt=""string"">2023-09-22T18:19:05Z</DateUtc></StartTime><FrequencyChanges><FrequencyChange><Frequency dt:dt=""r8"">10000000</Frequency><Timestamp dt:dt=""r8"">9661587946897</Timestamp><Current dt:dt=""r8"">0</Current><DateUtc dt:dt=""string"">2023-09-22T18:19:05Z</DateUtc></FrequencyChange></FrequencyChanges></Clock>\n",2.0.10.252,2.0.10.356,2.0.10.356,Professional,1.0.0.1
Proc4,,List12,,,,,,,248,3,246,246,41,3,0,,2,,,,,,,,,,,,,,,,,,,,,,,8,1,8,,,,,,,,,,,,,,,,DelayDiscountingTitrated Backup1,09-22-2023,14:19:06,9/22/2023 6:19:06 PM,3014,1,18,DelayDiscountingTitrated Backup1-3014-1,-2086404605,1,60.017,"<?xml version=""1.0""?>\n<Clock xmlns:dt=""urn:schemas-microsoft-com:datatypes""><Description dt:dt=""string"">E-Prime Primary Realtime Clock</Description><StartTime><Timestamp dt:dt=""int"">0</Timestamp><DateUtc dt:dt=""string"">2023-09-22T18:19:05Z</DateUtc></StartTime><FrequencyChanges><FrequencyChange><Frequency dt:dt=""r8"">10000000</Frequency><Timestamp dt:dt=""r8"">9661587946897</Timestamp><Current dt:dt=""r8"">0</Current><DateUtc dt:dt=""string"">2023-09-22T18:19:05Z</DateUtc></FrequencyChange></FrequencyChanges></Clock>\n",2.0.10.252,2.0.10.356,2.0.10.356,Professional,1.0.0.1
Proc4,,List12,,,,,,,249,3,248,248,574,3,0,,1,,,,,,,,,,,,,,,,,,,,,,,9,1,9,,,,,,,,,,,,,,,,DelayDiscountingTitrated Backup1,09-22-2023,14:19:06,9/22/2023 6:19:06 PM,3014,1,18,DelayDiscountingTitrated Backup1-3014-1,-2086404605,1,60.017,"<?xml version=""1.0""?>\n<Clock xmlns:dt=""urn:schemas-microsoft-com:datatypes""><Description dt:dt=""string"">E-Prime Primary Realtime Clock</Description><StartTime><Timestamp dt:dt=""int"">0</Timestamp><DateUtc dt:dt=""string"">2023-09-22T18:19:05Z</DateUtc></StartTime><FrequencyChanges><FrequencyChange><Frequency dt:dt=""r8"">10000000</Frequency><Timestamp dt:dt=""r8"">9661587946897</Timestamp><Current dt:dt=""r8"">0</Current><DateUtc dt:dt=""string"">2023-09-22T18:19:05Z</DateUtc></FrequencyChange></FrequencyChanges></Clock>\n",2.0.10.252,2.0.10.356,2.0.10.356,Professional,1.0.0.1
Proc4,,List12,,,,,,,249,3,248,249,830,3,0,,,,,,,,,,,,,,,,,,,,,,,,,10,1,10,,,,,,,,,,,,,,,,DelayDiscountingTitrated Backup1,09-22-2023,14:19:06,9/22/2023 6:19:06 PM,3014,1,18,DelayDiscountingTitrated Backup1-3014-1,-2086404605,1,60.017,"<?xml version=""1.0""?>\n<Clock xmlns:dt=""urn:schemas-microsoft-com:datatypes""><Description dt:dt=""string"">E-Prime Primary Realtime Clock</Description><StartTime><Timestamp dt:dt=""int"">0</Timestamp><DateUtc dt:dt=""string"">2023-09-22T18:19:05Z</DateUtc></StartTime><FrequencyChanges><FrequencyChange><Frequency dt:dt=""r8"">10000000</Frequency><Timestamp dt:dt=""r8"">9661587946897</Timestamp><Current dt:dt=""r8"">0</Current><DateUtc dt:dt=""string"">2023-09-22T18:19:05Z</DateUtc></FrequencyChange></FrequencyChanges></Clock>\n",2.0.10.252,2.0.10.356,2.0.10.356,Professional,1.0.0.1
discount4,,List7,,,,,,,,,,,,,,,,500,5 years,1825,,,,,,,,,,,,,,,,,,,,,,,2,1,1,,,,,,,,,,,,,DelayDiscountingTitrated Backup1,09-22-2023,14:19:06,9/22/2023 6:19:06 PM,3014,1,18,DelayDiscountingTitrated Backup1-3014-1,-2086404605,1,60.017,"<?xml version=""1.0""?>\n<Clock xmlns:dt=""urn:schemas-microsoft-com:datatypes""><Description dt:dt=""string"">E-Prime Primary Realtime Clock</Description><StartTime><Timestamp dt:dt=""int"">0</Timestamp><DateUtc dt:dt=""string"">2023-09-22T18:19:05Z</DateUtc></StartTime><FrequencyChanges><FrequencyChange><Frequency dt:dt=""r8"">10000000</Frequency><Timestamp dt:dt=""r8"">9661587946897</Timestamp><Current dt:dt=""r8"">0</Current><DateUtc dt:dt=""string"">2023-09-22T18:19:05Z</DateUtc></FrequencyChange></FrequencyChanges></Clock>\n",2.0.10.252,2.0.10.356,2.0.10.356,Professional,1.0.0.1
fiveyearproc,,List1,,,,,,,,,,,,,,,,,,,,,,5,1,4,4,,,,,,,,,,,,,,,,,,,,,,,,,,,,,,,DelayDiscountingTitrated Backup1,09-22-2023,14:19:06,9/22/2023 6:19:06 PM,3014,1,18,DelayDiscountingTitrated Backup1-3014-1,-2086404605,1,60.017,"<?xml version=""1.0""?>\n<Clock xmlns:dt=""urn:schemas-microsoft-com:datatypes""><Description dt:dt=""string"">E-Prime Primary Realtime Clock</Description><StartTime><Timestamp dt:dt=""int"">0</Timestamp><DateUtc dt:dt=""string"">2023-09-22T18:19:05Z</DateUtc></StartTime><FrequencyChanges><FrequencyChange><Frequency dt:dt=""r8"">10000000</Frequency><Timestamp dt:dt=""r8"">9661587946897</Timestamp><Current dt:dt=""r8"">0</Current><DateUtc dt:dt=""string"">2023-09-22T18:19:05Z</DateUtc></FrequencyChange></FrequencyChanges></Clock>\n",2.0.10.252,2.0.10.356,2.0.10.356,Professional,1.0.0.1
TrialProcInit,,List2,,,3469,3,0,,750,3,500,,,,,,,,,,,,,,,,,,,,,,,,,,,,,,,,,,,1,1,1,,,,,,,,,,DelayDiscountingTitrated Backup1,09-22-2023,14:19:06,9/22/2023 6:19:06 PM,3014,1,18,DelayDiscountingTitrated Backup1-3014-1,-2086404605,1,60.017,"<?xml version=""1.0""?>\n<Clock xmlns:dt=""urn:schemas-microsoft-com:datatypes""><Description dt:dt=""string"">E-Prime Primary Realtime Clock</Description><StartTime><Timestamp dt:dt=""int"">0</Timestamp><DateUtc dt:dt=""string"">2023-09-22T18:19:05Z</DateUtc></StartTime><FrequencyChanges><FrequencyChange><Frequency dt:dt=""r8"">10000000</Frequency><Timestamp dt:dt=""r8"">9661587946897</Timestamp><Current dt:dt=""r8"">0</Current><DateUtc dt:dt=""string"">2023-09-22T18:19:05Z</DateUtc></FrequencyChange></FrequencyChanges></Clock>\n",2.0.10.252,2.0.10.356,2.0.10.356,Professional,1.0.0.1
TrialProc,,List2,,,,,,,875,3,750,750,1065,3,0,,125,,,,,,,,,,,,,,,,,,,,,,,,,,,,,2,1,2,,,,,,,,,,DelayDiscountingTitrated Backup1,09-22-2023,14:19:06,9/22/2023 6:19:06 PM,3014,1,18,DelayDiscountingTitrated Backup1-3014-1,-2086404605,1,60.017,"<?xml version=""1.0""?>\n<Clock xmlns:dt=""urn:schemas-microsoft-com:datatypes""><Description dt:dt=""string"">E-Prime Primary Realtime Clock</Description><StartTime><Timestamp dt:dt=""int"">0</Timestamp><DateUtc dt:dt=""string"">2023-09-22T18:19:05Z</DateUtc></StartTime><FrequencyChanges><FrequencyChange><Frequency dt:dt=""r8"">10000000</Frequency><Timestamp dt:dt=""r8"">9661587946897</Timestamp><Current dt:dt=""r8"">0</Current><DateUtc dt:dt=""string"">2023-09-22T18:19:05Z</DateUtc></FrequencyChange></FrequencyChanges></Clock>\n",2.0.10.252,2.0.10.356,2.0.10.356,Professional,1.0.0.1
TrialProc,,List2,,,,,,,937,3,875,875,1341,3,0,,62,,,,,,,,,,,,,,,,,,,,,,,,,,,,,3,1,3,,,,,,,,,,DelayDiscountingTitrated Backup1,09-22-2023,14:19:06,9/22/2023 6:19:06 PM,3014,1,18,DelayDiscountingTitrated Backup1-3014-1,-2086404605,1,60.017,"<?xml version=""1.0""?>\n<Clock xmlns:dt=""urn:schemas-microsoft-com:datatypes""><Description dt:dt=""string"">E-Prime Primary Realtime Clock</Description><StartTime><Timestamp dt:dt=""int"">0</Timestamp><DateUtc dt:dt=""string"">2023-09-22T18:19:05Z</DateUtc></StartTime><FrequencyChanges><FrequencyChange><Frequency dt:dt=""r8"">10000000</Frequency><Timestamp dt:dt=""r8"">9661587946897</Timestamp><Current dt:dt=""r8"">0</Current><DateUtc dt:dt=""string"">2023-09-22T18:19:05Z</DateUtc></FrequencyChange></FrequencyChanges></Clock>\n",2.0.10.252,2.0.10.356,2.0.10.356,Professional,1.0.0.1
TrialProc,,List2,,,,,,,969,3,937,937,591,3,0,,32,,,,,,,,,,,,,,,,,,,,,,,,,,,,,4,1,4,,,,,,,,,,DelayDiscountingTitrated Backup1,09-22-2023,14:19:06,9/22/2023 6:19:06 PM,3014,1,18,DelayDiscountingTitrated Backup1-3014-1,-2086404605,1,60.017,"<?xml version=""1.0""?>\n<Clock xmlns:dt=""urn:schemas-microsoft-com:datatypes""><Description dt:dt=""string"">E-Prime Primary Realtime Clock</Description><StartTime><Timestamp dt:dt=""int"">0</Timestamp><DateUtc dt:dt=""string"">2023-09-22T18:19:05Z</DateUtc></StartTime><FrequencyChanges><FrequencyChange><Frequency dt:dt=""r8"">10000000</Frequency><Timestamp dt:dt=""r8"">9661587946897</Timestamp><Current dt:dt=""r8"">0</Current><DateUtc dt:dt=""string"">2023-09-22T18:19:05Z</DateUtc></FrequencyChange></FrequencyChanges></Clock>\n",2.0.10.252,2.0.10.356,2.0.10.356,Professional,1.0.0.1
TrialProc,,List2,,,,,,,985,3,969,969,550,3,0,,16,,,,,,,,,,,,,,,,,,,,,,,,,,,,,5,1,5,,,,,,,,,,DelayDiscountingTitrated Backup1,09-22-2023,14:19:06,9/22/2023 6:19:06 PM,3014,1,18,DelayDiscountingTitrated Backup1-3014-1,-2086404605,1,60.017,"<?xml version=""1.0""?>\n<Clock xmlns:dt=""urn:schemas-microsoft-com:datatypes""><Description dt:dt=""string"">E-Prime Primary Realtime Clock</Description><StartTime><Timestamp dt:dt=""int"">0</Timestamp><DateUtc dt:dt=""string"">2023-09-22T18:19:05Z</DateUtc></StartTime><FrequencyChanges><FrequencyChange><Frequency dt:dt=""r8"">10000000</Frequency><Timestamp dt:dt=""r8"">9661587946897</Timestamp><Current dt:dt=""r8"">0</Current><DateUtc dt:dt=""string"">2023-09-22T18:19:05Z</DateUtc></FrequencyChange></FrequencyChanges></Clock>\n",2.0.10.252,2.0.10.356,2.0.10.356,Professional,1.0.0.1
TrialProc,,List2,,,,,,,993,3,985,985,398,3,0,,8,,,,,,,,,,,,,,,,,,,,,,,,,,,,,6,1,6,,,,,,,,,,DelayDiscountingTitrated Backup1,09-22-2023,14:19:06,9/22/2023 6:19:06 PM,3014,1,18,DelayDiscountingTitrated Backup1-3014-1,-2086404605,1,60.017,"<?xml version=""1.0""?>\n<Clock xmlns:dt=""urn:schemas-microsoft-com:datatypes""><Description dt:dt=""string"">E-Prime Primary Realtime Clock</Description><StartTime><Timestamp dt:dt=""int"">0</Timestamp><DateUtc dt:dt=""string"">2023-09-22T18:19:05Z</DateUtc></StartTime><FrequencyChanges><FrequencyChange><Frequency dt:dt=""r8"">10000000</Frequency><Timestamp dt:dt=""r8"">9661587946897</Timestamp><Current dt:dt=""r8"">0</Current><DateUtc dt:dt=""string"">2023-09-22T18:19:05Z</DateUtc></FrequencyChange></FrequencyChanges></Clock>\n",2.0.10.252,2.0.10.356,2.0.10.356,Professional,1.0.0.1
TrialProc,,List2,,,,,,,997,3,993,993,613,3,0,,4,,,,,,,,,,,,,,,,,,,,,,,,,,,,,7,1,7,,,,,,,,,,DelayDiscountingTitrated Backup1,09-22-2023,14:19:06,9/22/2023 6:19:06 PM,3014,1,18,DelayDiscountingTitrated Backup1-3014-1,-2086404605,1,60.017,"<?xml version=""1.0""?>\n<Clock xmlns:dt=""urn:schemas-microsoft-com:datatypes""><Description dt:dt=""string"">E-Prime Primary Realtime Clock</Description><StartTime><Timestamp dt:dt=""int"">0</Timestamp><DateUtc dt:dt=""string"">2023-09-22T18:19:05Z</DateUtc></StartTime><FrequencyChanges><FrequencyChange><Frequency dt:dt=""r8"">10000000</Frequency><Timestamp dt:dt=""r8"">9661587946897</Timestamp><Current dt:dt=""r8"">0</Current><DateUtc dt:dt=""string"">2023-09-22T18:19:05Z</DateUtc></FrequencyChange></FrequencyChanges></Clock>\n",2.0.10.252,2.0.10.356,2.0.10.356,Professional,1.0.0.1
TrialProc,,List2,,,,,,,999,3,997,997,771,3,0,,2,,,,,,,,,,,,,,,,,,,,,,,,,,,,,8,1,8,,,,,,,,,,DelayDiscountingTitrated Backup1,09-22-2023,14:19:06,9/22/2023 6:19:06 PM,3014,1,18,DelayDiscountingTitrated Backup1-3014-1,-2086404605,1,60.017,"<?xml version=""1.0""?>\n<Clock xmlns:dt=""urn:schemas-microsoft-com:datatypes""><Description dt:dt=""string"">E-Prime Primary Realtime Clock</Description><StartTime><Timestamp dt:dt=""int"">0</Timestamp><DateUtc dt:dt=""string"">2023-09-22T18:19:05Z</DateUtc></StartTime><FrequencyChanges><FrequencyChange><Frequency dt:dt=""r8"">10000000</Frequency><Timestamp dt:dt=""r8"">9661587946897</Timestamp><Current dt:dt=""r8"">0</Current><DateUtc dt:dt=""string"">2023-09-22T18:19:05Z</DateUtc></FrequencyChange></FrequencyChanges></Clock>\n",2.0.10.252,2.0.10.356,2.0.10.356,Professional,1.0.0.1
TrialProc,,List2,,,,,,,999,3,,999,947,3,0,,,,,,,,,,,,,,,,,,,,,,,,,,,,,,,9,1,9,,,,,,,,,,DelayDiscountingTitrated Backup1,09-22-2023,14:19:06,9/22/2023 6:19:06 PM,3014,1,18,DelayDiscountingTitrated Backup1-3014-1,-2086404605,1,60.017,"<?xml version=""1.0""?>\n<Clock xmlns:dt=""urn:schemas-microsoft-com:datatypes""><Description dt:dt=""string"">E-Prime Primary Realtime Clock</Description><StartTime><Timestamp dt:dt=""int"">0</Timestamp><DateUtc dt:dt=""string"">2023-09-22T18:19:05Z</DateUtc></StartTime><FrequencyChanges><FrequencyChange><Frequency dt:dt=""r8"">10000000</Frequency><Timestamp dt:dt=""r8"">9661587946897</Timestamp><Current dt:dt=""r8"">0</Current><DateUtc dt:dt=""string"">2023-09-22T18:19:05Z</DateUtc></FrequencyChange></FrequencyChanges></Clock>\n",2.0.10.252,2.0.10.356,2.0.10.356,Professional,1.0.0.1
discount,,List3,,,,,,,,,,,,,,,,500,1 week,7,,,,,,,,,,,,,,,,,,,,,,,,,,,,,2,1,1,,,,,,,DelayDiscountingTitrated Backup1,09-22-2023,14:19:06,9/22/2023 6:19:06 PM,3014,1,18,DelayDiscountingTitrated Backup1-3014-1,-2086404605,1,60.017,"<?xml version=""1.0""?>\n<Clock xmlns:dt=""urn:schemas-microsoft-com:datatypes""><Description dt:dt=""string"">E-Prime Primary Realtime Clock</Description><StartTime><Timestamp dt:dt=""int"">0</Timestamp><DateUtc dt:dt=""string"">2023-09-22T18:19:05Z</DateUtc></StartTime><FrequencyChanges><FrequencyChange><Frequency dt:dt=""r8"">10000000</Frequency><Timestamp dt:dt=""r8"">9661587946897</Timestamp><Current dt:dt=""r8"">0</Current><DateUtc dt:dt=""string"">2023-09-22T18:19:05Z</DateUtc></FrequencyChange></FrequencyChanges></Clock>\n",2.0.10.252,2.0.10.356,2.0.10.356,Professional,1.0.0.1
onewkproc,,List1,,,,,,,,,,,,,,,,,,,,,,1,1,5,5,,,,,,,,,,,,,,,,,,,,,,,,,,,,,,,DelayDiscountingTitrated Backup1,09-22-2023,14:19:06,9/22/2023 6:19:06 PM,3014,1,18,DelayDiscountingTitrated Backup1-3014-1,-2086404605,1,60.017,"<?xml version=""1.0""?>\n<Clock xmlns:dt=""urn:schemas-microsoft-com:datatypes""><Description dt:dt=""string"">E-Prime Primary Realtime Clock</Description><StartTime><Timestamp dt:dt=""int"">0</Timestamp><DateUtc dt:dt=""string"">2023-09-22T18:19:05Z</DateUtc></StartTime><FrequencyChanges><FrequencyChange><Frequency dt:dt=""r8"">10000000</Frequency><Timestamp dt:dt=""r8"">9661587946897</Timestamp><Current dt:dt=""r8"">0</Current><DateUtc dt:dt=""string"">2023-09-22T18:19:05Z</DateUtc></FrequencyChange></FrequencyChanges></Clock>\n",2.0.10.252,2.0.10.356,2.0.10.356,Professional,1.0.0.1
Init5,,List13,,,5122,1,0,,250,1,500,,,,,,,,,,,,,,,,,,,,,,,,,,,,,,,,,,,,,,,,,1,1,1,,,,DelayDiscountingTitrated Backup1,09-22-2023,14:19:06,9/22/2023 6:19:06 PM,3014,1,18,DelayDiscountingTitrated Backup1-3014-1,-2086404605,1,60.017,"<?xml version=""1.0""?>\n<Clock xmlns:dt=""urn:schemas-microsoft-com:datatypes""><Description dt:dt=""string"">E-Prime Primary Realtime Clock</Description><StartTime><Timestamp dt:dt=""int"">0</Timestamp><DateUtc dt:dt=""string"">2023-09-22T18:19:05Z</DateUtc></StartTime><FrequencyChanges><FrequencyChange><Frequency dt:dt=""r8"">10000000</Frequency><Timestamp dt:dt=""r8"">9661587946897</Timestamp><Current dt:dt=""r8"">0</Current><DateUtc dt:dt=""string"">2023-09-22T18:19:05Z</DateUtc></FrequencyChange></FrequencyChanges></Clock>\n",2.0.10.252,2.0.10.356,2.0.10.356,Professional,1.0.0.1
Proc5,,List13,,,,,,,125,1,250,250,301,1,0,,125,,,,,,,,,,,,,,,,,,,,,,,,,,,,,,,,,,,2,1,2,,,,DelayDiscountingTitrated Backup1,09-22-2023,14:19:06,9/22/2023 6:19:06 PM,3014,1,18,DelayDiscountingTitrated Backup1-3014-1,-2086404605,1,60.017,"<?xml version=""1.0""?>\n<Clock xmlns:dt=""urn:schemas-microsoft-com:datatypes""><Description dt:dt=""string"">E-Prime Primary Realtime Clock</Description><StartTime><Timestamp dt:dt=""int"">0</Timestamp><DateUtc dt:dt=""string"">2023-09-22T18:19:05Z</DateUtc></StartTime><FrequencyChanges><FrequencyChange><Frequency dt:dt=""r8"">10000000</Frequency><Timestamp dt:dt=""r8"">9661587946897</Timestamp><Current dt:dt=""r8"">0</Current><DateUtc dt:dt=""string"">2023-09-22T18:19:05Z</DateUtc></FrequencyChange></FrequencyChanges></Clock>\n",2.0.10.252,2.0.10.356,2.0.10.356,Professional,1.0.0.1
Proc5,,List13,,,,,,,63,1,125,125,215,1,0,,62,,,,,,,,,,,,,,,,,,,,,,,,,,,,,,,,,,,3,1,3,,,,DelayDiscountingTitrated Backup1,09-22-2023,14:19:06,9/22/2023 6:19:06 PM,3014,1,18,DelayDiscountingTitrated Backup1-3014-1,-2086404605,1,60.017,"<?xml version=""1.0""?>\n<Clock xmlns:dt=""urn:schemas-microsoft-com:datatypes""><Description dt:dt=""string"">E-Prime Primary Realtime Clock</Description><StartTime><Timestamp dt:dt=""int"">0</Timestamp><DateUtc dt:dt=""string"">2023-09-22T18:19:05Z</DateUtc></StartTime><FrequencyChanges><FrequencyChange><Frequency dt:dt=""r8"">10000000</Frequency><Timestamp dt:dt=""r8"">9661587946897</Timestamp><Current dt:dt=""r8"">0</Current><DateUtc dt:dt=""string"">2023-09-22T18:19:05Z</DateUtc></FrequencyChange></FrequencyChanges></Clock>\n",2.0.10.252,2.0.10.356,2.0.10.356,Professional,1.0.0.1
Proc5,,List13,,,,,,,94,3,63,63,1029,3,0,,31,,,,,,,,,,,,,,,,,,,,,,,,,,,,,,,,,,,4,1,4,,,,DelayDiscountingTitrated Backup1,09-22-2023,14:19:06,9/22/2023 6:19:06 PM,3014,1,18,DelayDiscountingTitrated Backup1-3014-1,-2086404605,1,60.017,"<?xml version=""1.0""?>\n<Clock xmlns:dt=""urn:schemas-microsoft-com:datatypes""><Description dt:dt=""string"">E-Prime Primary Realtime Clock</Description><StartTime><Timestamp dt:dt=""int"">0</Timestamp><DateUtc dt:dt=""string"">2023-09-22T18:19:05Z</DateUtc></StartTime><FrequencyChanges><FrequencyChange><Frequency dt:dt=""r8"">10000000</Frequency><Timestamp dt:dt=""r8"">9661587946897</Timestamp><Current dt:dt=""r8"">0</Current><DateUtc dt:dt=""string"">2023-09-22T18:19:05Z</DateUtc></FrequencyChange></FrequencyChanges></Clock>\n",2.0.10.252,2.0.10.356,2.0.10.356,Professional,1.0.0.1
Proc5,,List13,,,,,,,110,3,94,94,1410,3,0,,16,,,,,,,,,,,,,,,,,,,,,,,,,,,,,,,,,,,5,1,5,,,,DelayDiscountingTitrated Backup1,09-22-2023,14:19:06,9/22/2023 6:19:06 PM,3014,1,18,DelayDiscountingTitrated Backup1-3014-1,-2086404605,1,60.017,"<?xml version=""1.0""?>\n<Clock xmlns:dt=""urn:schemas-microsoft-com:datatypes""><Description dt:dt=""string"">E-Prime Primary Realtime Clock</Description><StartTime><Timestamp dt:dt=""int"">0</Timestamp><DateUtc dt:dt=""string"">2023-09-22T18:19:05Z</DateUtc></StartTime><FrequencyChanges><FrequencyChange><Frequency dt:dt=""r8"">10000000</Frequency><Timestamp dt:dt=""r8"">9661587946897</Timestamp><Current dt:dt=""r8"">0</Current><DateUtc dt:dt=""string"">2023-09-22T18:19:05Z</DateUtc></FrequencyChange></FrequencyChanges></Clock>\n",2.0.10.252,2.0.10.356,2.0.10.356,Professional,1.0.0.1
Proc5,,List13,,,,,,,102,1,110,110,2913,1,0,,8,,,,,,,,,,,,,,,,,,,,,,,,,,,,,,,,,,,6,1,6,,,,DelayDiscountingTitrated Backup1,09-22-2023,14:19:06,9/22/2023 6:19:06 PM,3014,1,18,DelayDiscountingTitrated Backup1-3014-1,-2086404605,1,60.017,"<?xml version=""1.0""?>\n<Clock xmlns:dt=""urn:schemas-microsoft-com:datatypes""><Description dt:dt=""string"">E-Prime Primary Realtime Clock</Description><StartTime><Timestamp dt:dt=""int"">0</Timestamp><DateUtc dt:dt=""string"">2023-09-22T18:19:05Z</DateUtc></StartTime><FrequencyChanges><FrequencyChange><Frequency dt:dt=""r8"">10000000</Frequency><Timestamp dt:dt=""r8"">9661587946897</Timestamp><Current dt:dt=""r8"">0</Current><DateUtc dt:dt=""string"">2023-09-22T18:19:05Z</DateUtc></FrequencyChange></FrequencyChanges></Clock>\n",2.0.10.252,2.0.10.356,2.0.10.356,Professional,1.0.0.1
Proc5,,List13,,,,,,,98,1,102,102,1387,1,0,,4,,,,,,,,,,,,,,,,,,,,,,,,,,,,,,,,,,,7,1,7,,,,DelayDiscountingTitrated Backup1,09-22-2023,14:19:06,9/22/2023 6:19:06 PM,3014,1,18,DelayDiscountingTitrated Backup1-3014-1,-2086404605,1,60.017,"<?xml version=""1.0""?>\n<Clock xmlns:dt=""urn:schemas-microsoft-com:datatypes""><Description dt:dt=""string"">E-Prime Primary Realtime Clock</Description><StartTime><Timestamp dt:dt=""int"">0</Timestamp><DateUtc dt:dt=""string"">2023-09-22T18:19:05Z</DateUtc></StartTime><FrequencyChanges><FrequencyChange><Frequency dt:dt=""r8"">10000000</Frequency><Timestamp dt:dt=""r8"">9661587946897</Timestamp><Current dt:dt=""r8"">0</Current><DateUtc dt:dt=""string"">2023-09-22T18:19:05Z</DateUtc></FrequencyChange></FrequencyChanges></Clock>\n",2.0.10.252,2.0.10.356,2.0.10.356,Professional,1.0.0.1
Proc5,,List13,,,,,,,100,3,98,98,747,3,0,,2,,,,,,,,,,,,,,,,,,,,,,,,,,,,,,,,,,,8,1,8,,,,DelayDiscountingTitrated Backup1,09-22-2023,14:19:06,9/22/2023 6:19:06 PM,3014,1,18,DelayDiscountingTitrated Backup1-3014-1,-2086404605,1,60.017,"<?xml version=""1.0""?>\n<Clock xmlns:dt=""urn:schemas-microsoft-com:datatypes""><Description dt:dt=""string"">E-Prime Primary Realtime Clock</Description><StartTime><Timestamp dt:dt=""int"">0</Timestamp><DateUtc dt:dt=""string"">2023-09-22T18:19:05Z</DateUtc></StartTime><FrequencyChanges><FrequencyChange><Frequency dt:dt=""r8"">10000000</Frequency><Timestamp dt:dt=""r8"">9661587946897</Timestamp><Current dt:dt=""r8"">0</Current><DateUtc dt:dt=""string"">2023-09-22T18:19:05Z</DateUtc></FrequencyChange></FrequencyChanges></Clock>\n",2.0.10.252,2.0.10.356,2.0.10.356,Professional,1.0.0.1
Proc5,,List13,,,,,,,99,1,100,100,1195,1,0,,1,,,,,,,,,,,,,,,,,,,,,,,,,,,,,,,,,,,9,1,9,,,,DelayDiscountingTitrated Backup1,09-22-2023,14:19:06,9/22/2023 6:19:06 PM,3014,1,18,DelayDiscountingTitrated Backup1-3014-1,-2086404605,1,60.017,"<?xml version=""1.0""?>\n<Clock xmlns:dt=""urn:schemas-microsoft-com:datatypes""><Description dt:dt=""string"">E-Prime Primary Realtime Clock</Description><StartTime><Timestamp dt:dt=""int"">0</Timestamp><DateUtc dt:dt=""string"">2023-09-22T18:19:05Z</DateUtc></StartTime><FrequencyChanges><FrequencyChange><Frequency dt:dt=""r8"">10000000</Frequency><Timestamp dt:dt=""r8"">9661587946897</Timestamp><Current dt:dt=""r8"">0</Current><DateUtc dt:dt=""string"">2023-09-22T18:19:05Z</DateUtc></FrequencyChange></FrequencyChanges></Clock>\n",2.0.10.252,2.0.10.356,2.0.10.356,Professional,1.0.0.1
Proc5,,List13,,,,,,,99,3,100,99,530,3,0,,,,,,,,,,,,,,,,,,,,,,,,,,,,,,,,,,,,,10,1,10,,,,DelayDiscountingTitrated Backup1,09-22-2023,14:19:06,9/22/2023 6:19:06 PM,3014,1,18,DelayDiscountingTitrated Backup1-3014-1,-2086404605,1,60.017,"<?xml version=""1.0""?>\n<Clock xmlns:dt=""urn:schemas-microsoft-com:datatypes""><Description dt:dt=""string"">E-Prime Primary Realtime Clock</Description><StartTime><Timestamp dt:dt=""int"">0</Timestamp><DateUtc dt:dt=""string"">2023-09-22T18:19:05Z</DateUtc></StartTime><FrequencyChanges><FrequencyChange><Frequency dt:dt=""r8"">10000000</Frequency><Timestamp dt:dt=""r8"">9661587946897</Timestamp><Current dt:dt=""r8"">0</Current><DateUtc dt:dt=""string"">2023-09-22T18:19:05Z</DateUtc></FrequencyChange></FrequencyChanges></Clock>\n",2.0.10.252,2.0.10.356,2.0.10.356,Professional,1.0.0.1
discount5,,List8,,,,,,,,,,,,,,,,500,15 years,5475,,,,,,,,,,,,,,,,,,,,,,,,,,,,,,,,,,,2,2,1,DelayDiscountingTitrated Backup1,09-22-2023,14:19:06,9/22/2023 6:19:06 PM,3014,1,18,DelayDiscountingTitrated Backup1-3014-1,-2086404605,1,60.017,"<?xml version=""1.0""?>\n<Clock xmlns:dt=""urn:schemas-microsoft-com:datatypes""><Description dt:dt=""string"">E-Prime Primary Realtime Clock</Description><StartTime><Timestamp dt:dt=""int"">0</Timestamp><DateUtc dt:dt=""string"">2023-09-22T18:19:05Z</DateUtc></StartTime><FrequencyChanges><FrequencyChange><Frequency dt:dt=""r8"">10000000</Frequency><Timestamp dt:dt=""r8"">9661587946897</Timestamp><Current dt:dt=""r8"">0</Current><DateUtc dt:dt=""string"">2023-09-22T18:19:05Z</DateUtc></FrequencyChange></FrequencyChanges></Clock>\n",2.0.10.252,2.0.10.356,2.0.10.356,Professional,1.0.0.1
fifteenyearproc,,List1,,,,,,,,,,,,,,,,,,,,,,6,1,6,6,,,,,,,,,,,,,,,,,,,,,,,,,,,,,,,DelayDiscountingTitrated Backup1,09-22-2023,14:19:06,9/22/2023 6:19:06 PM,3014,1,18,DelayDiscountingTitrated Backup1-3014-1,-2086404605,1,60.017,"<?xml version=""1.0""?>\n<Clock xmlns:dt=""urn:schemas-microsoft-com:datatypes""><Description dt:dt=""string"">E-Prime Primary Realtime Clock</Description><StartTime><Timestamp dt:dt=""int"">0</Timestamp><DateUtc dt:dt=""string"">2023-09-22T18:19:05Z</DateUtc></StartTime><FrequencyChanges><FrequencyChange><Frequency dt:dt=""r8"">10000000</Frequency><Timestamp dt:dt=""r8"">9661587946897</Timestamp><Current dt:dt=""r8"">0</Current><DateUtc dt:dt=""string"">2023-09-22T18:19:05Z</DateUtc></FrequencyChange></FrequencyChanges></Clock>\n",2.0.10.252,2.0.10.356,2.0.10.356,Professional,1.0.0.1
,,,,,,,,,,,,,,,,,,,,,,,,,,,,,,,,,,,,,,,,,,,,,,,,,,,,,,,,,,DelayDiscountingTitrated Backup1,09-22-2023,14:19:06,9/22/2023 6:19:06 PM,3014,1,18,DelayDiscountingTitrated Backup1-3014-1,-2086404605,1,60.017,"<?xml version=""1.0""?>\n<Clock xmlns:dt=""urn:schemas-microsoft-com:datatypes""><Description dt:dt=""string"">E-Prime Primary Realtime Clock</Description><StartTime><Timestamp dt:dt=""int"">0</Timestamp><DateUtc dt:dt=""string"">2023-09-22T18:19:05Z</DateUtc></StartTime><FrequencyChanges><FrequencyChange><Frequency dt:dt=""r8"">10000000</Frequency><Timestamp dt:dt=""r8"">9661587946897</Timestamp><Current dt:dt=""r8"">0</Current><DateUtc dt:dt=""string"">2023-09-22T18:19:05Z</DateUtc></FrequencyChange></FrequencyChanges></Clock>\n",2.0.10.252,2.0.10.356,2.0.10.356,Professional,1.0.0.1
