Procedure,List12,Running,List12.Cycle,List12.Sample,Slide2.DEVICE,Slide2.RT,Slide2.RESP,Slide4.RT,Slide4.RESP,immed3,respprev,prevalue,imstring,Slide1.DEVICE,Slide1.RT,Slide1.RESP,Slide5.RT,Slide5.RESP,immed5,immed,delaypd,timedays,List7,List7.Cycle,List7.Sample,List1,List1.Cycle,List1.Sample,roundnumber,TextDisplay11.DEVICE,List13,List13.Cycle,List13.Sample,List8,List8.Cycle,List8.Sample,List2,List2.Cycle,List2.Sample,List3,List3.Cycle,List3.Sample,List11,List11.Cycle,List11.Sample,List6,List6.Cycle,List6.Sample,List9,List9.Cycle,List9.Sample,List4,List4.Cycle,List4.Sample,List10,List10.Cycle,List10.Sample,List5,List5.Cycle,List5.Sample,Experiment,SessionDate,SessionTime,SessionStartDateTimeUtc,Subject,Session,Age,DataFile.Basename,RandomSeed,Group,Display.RefreshRate,Clock.Information,StudioVersion,RuntimeVersion,RuntimeVersionExpected,RuntimeCapabilities,ExperimentVersion,TextDisplay14.DEVICE,Slide3.DEVICE
Init4,1,List12,1,1,Keyboard,2245,1,0,,100,1,200,,,,,,,,,,,,,,,,,,,,,,,,,,,,,,,,,,,,,,,,,,,,,,,,,DelayDiscountingTitrated,02-05-2025,16:14:07,2/5/2025 9:14:07 PM,1118,1,11,DelayDiscountingTitrated-1118-1,2123007115,1,75.005,"<?xml version=""1.0""?>\n<Clock xmlns:dt=""urn:schemas-microsoft-com:datatypes""><Description dt:dt=""string"">E-Prime Primary Realtime Clock</Description><StartTime><Timestamp dt:dt=""int"">0</Timestamp><DateUtc dt:dt=""string"">2025-02-05T21:14:06Z</DateUtc></StartTime><FrequencyChanges><FrequencyChange><Frequency dt:dt=""r8"">10000000</Frequency><Timestamp dt:dt=""r8"">19836278556474</Timestamp><Current dt:dt=""r8"">0</Current><DateUtc dt:dt=""string"">2025-02-05T21:14:06Z</DateUtc></FrequencyChange></FrequencyChanges></Clock>\n",3.0.3.43,3.0.3.60,3.0.3.60,Full,1.0.0.8,Keyboard,Keyboard
Proc4,2,List12,1,2,,,,,,50,1,100,100,Keyboard,3764,1,0,,50,,,,,,,,,,,,,,,,,,,,,,,,,,,,,,,,,,,,,,,,,,DelayDiscountingTitrated,02-05-2025,16:14:07,2/5/2025 9:14:07 PM,1118,1,11,DelayDiscountingTitrated-1118-1,2123007115,1,75.005,"<?xml version=""1.0""?>\n<Clock xmlns:dt=""urn:schemas-microsoft-com:datatypes""><Description dt:dt=""string"">E-Prime Primary Realtime Clock</Description><StartTime><Timestamp dt:dt=""int"">0</Timestamp><DateUtc dt:dt=""string"">2025-02-05T21:14:06Z</DateUtc></StartTime><FrequencyChanges><FrequencyChange><Frequency dt:dt=""r8"">10000000</Frequency><Timestamp dt:dt=""r8"">19836278556474</Timestamp><Current dt:dt=""r8"">0</Current><DateUtc dt:dt=""string"">2025-02-05T21:14:06Z</DateUtc></FrequencyChange></FrequencyChanges></Clock>\n",3.0.3.43,3.0.3.60,3.0.3.60,Full,1.0.0.8,Keyboard,Keyboard
Proc4,3,List12,1,3,,,,,,75,3,50,50,Keyboard,1419,3,0,,25,,,,,,,,,,,,,,,,,,,,,,,,,,,,,,,,,,,,,,,,,,DelayDiscountingTitrated,02-05-2025,16:14:07,2/5/2025 9:14:07 PM,1118,1,11,DelayDiscountingTitrated-1118-1,2123007115,1,75.005,"<?xml version=""1.0""?>\n<Clock xmlns:dt=""urn:schemas-microsoft-com:datatypes""><Description dt:dt=""string"">E-Prime Primary Realtime Clock</Description><StartTime><Timestamp dt:dt=""int"">0</Timestamp><DateUtc dt:dt=""string"">2025-02-05T21:14:06Z</DateUtc></StartTime><FrequencyChanges><FrequencyChange><Frequency dt:dt=""r8"">10000000</Frequency><Timestamp dt:dt=""r8"">19836278556474</Timestamp><Current dt:dt=""r8"">0</Current><DateUtc dt:dt=""string"">2025-02-05T21:14:06Z</DateUtc></FrequencyChange></FrequencyChanges></Clock>\n",3.0.3.43,3.0.3.60,3.0.3.60,Full,1.0.0.8,Keyboard,Keyboard
Proc4,4,List12,1,4,,,,,,87,3,75,75,Keyboard,2721,3,0,,12,,,,,,,,,,,,,,,,,,,,,,,,,,,,,,,,,,,,,,,,,,DelayDiscountingTitrated,02-05-2025,16:14:07,2/5/2025 9:14:07 PM,1118,1,11,DelayDiscountingTitrated-1118-1,2123007115,1,75.005,"<?xml version=""1.0""?>\n<Clock xmlns:dt=""urn:schemas-microsoft-com:datatypes""><Description dt:dt=""string"">E-Prime Primary Realtime Clock</Description><StartTime><Timestamp dt:dt=""int"">0</Timestamp><DateUtc dt:dt=""string"">2025-02-05T21:14:06Z</DateUtc></StartTime><FrequencyChanges><FrequencyChange><Frequency dt:dt=""r8"">10000000</Frequency><Timestamp dt:dt=""r8"">19836278556474</Timestamp><Current dt:dt=""r8"">0</Current><DateUtc dt:dt=""string"">2025-02-05T21:14:06Z</DateUtc></FrequencyChange></FrequencyChanges></Clock>\n",3.0.3.43,3.0.3.60,3.0.3.60,Full,1.0.0.8,Keyboard,Keyboard
Proc4,5,List12,1,5,,,,,,93,3,87,87,Keyboard,1111,3,0,,6,,,,,,,,,,,,,,,,,,,,,,,,,,,,,,,,,,,,,,,,,,DelayDiscountingTitrated,02-05-2025,16:14:07,2/5/2025 9:14:07 PM,1118,1,11,DelayDiscountingTitrated-1118-1,2123007115,1,75.005,"<?xml version=""1.0""?>\n<Clock xmlns:dt=""urn:schemas-microsoft-com:datatypes""><Description dt:dt=""string"">E-Prime Primary Realtime Clock</Description><StartTime><Timestamp dt:dt=""int"">0</Timestamp><DateUtc dt:dt=""string"">2025-02-05T21:14:06Z</DateUtc></StartTime><FrequencyChanges><FrequencyChange><Frequency dt:dt=""r8"">10000000</Frequency><Timestamp dt:dt=""r8"">19836278556474</Timestamp><Current dt:dt=""r8"">0</Current><DateUtc dt:dt=""string"">2025-02-05T21:14:06Z</DateUtc></FrequencyChange></FrequencyChanges></Clock>\n",3.0.3.43,3.0.3.60,3.0.3.60,Full,1.0.0.8,Keyboard,Keyboard
Proc4,6,List12,1,6,,,,,,96,3,93,93,Keyboard,924,3,0,,3,,,,,,,,,,,,,,,,,,,,,,,,,,,,,,,,,,,,,,,,,,DelayDiscountingTitrated,02-05-2025,16:14:07,2/5/2025 9:14:07 PM,1118,1,11,DelayDiscountingTitrated-1118-1,2123007115,1,75.005,"<?xml version=""1.0""?>\n<Clock xmlns:dt=""urn:schemas-microsoft-com:datatypes""><Description dt:dt=""string"">E-Prime Primary Realtime Clock</Description><StartTime><Timestamp dt:dt=""int"">0</Timestamp><DateUtc dt:dt=""string"">2025-02-05T21:14:06Z</DateUtc></StartTime><FrequencyChanges><FrequencyChange><Frequency dt:dt=""r8"">10000000</Frequency><Timestamp dt:dt=""r8"">19836278556474</Timestamp><Current dt:dt=""r8"">0</Current><DateUtc dt:dt=""string"">2025-02-05T21:14:06Z</DateUtc></FrequencyChange></FrequencyChanges></Clock>\n",3.0.3.43,3.0.3.60,3.0.3.60,Full,1.0.0.8,Keyboard,Keyboard
Proc4,7,List12,1,7,,,,,,98,3,96,96,Keyboard,672,3,0,,2,,,,,,,,,,,,,,,,,,,,,,,,,,,,,,,,,,,,,,,,,,DelayDiscountingTitrated,02-05-2025,16:14:07,2/5/2025 9:14:07 PM,1118,1,11,DelayDiscountingTitrated-1118-1,2123007115,1,75.005,"<?xml version=""1.0""?>\n<Clock xmlns:dt=""urn:schemas-microsoft-com:datatypes""><Description dt:dt=""string"">E-Prime Primary Realtime Clock</Description><StartTime><Timestamp dt:dt=""int"">0</Timestamp><DateUtc dt:dt=""string"">2025-02-05T21:14:06Z</DateUtc></StartTime><FrequencyChanges><FrequencyChange><Frequency dt:dt=""r8"">10000000</Frequency><Timestamp dt:dt=""r8"">19836278556474</Timestamp><Current dt:dt=""r8"">0</Current><DateUtc dt:dt=""string"">2025-02-05T21:14:06Z</DateUtc></FrequencyChange></FrequencyChanges></Clock>\n",3.0.3.43,3.0.3.60,3.0.3.60,Full,1.0.0.8,Keyboard,Keyboard
Proc4,8,List12,1,8,,,,,,99,3,98,98,Keyboard,605,3,0,,1,,,,,,,,,,,,,,,,,,,,,,,,,,,,,,,,,,,,,,,,,,DelayDiscountingTitrated,02-05-2025,16:14:07,2/5/2025 9:14:07 PM,1118,1,11,DelayDiscountingTitrated-1118-1,2123007115,1,75.005,"<?xml version=""1.0""?>\n<Clock xmlns:dt=""urn:schemas-microsoft-com:datatypes""><Description dt:dt=""string"">E-Prime Primary Realtime Clock</Description><StartTime><Timestamp dt:dt=""int"">0</Timestamp><DateUtc dt:dt=""string"">2025-02-05T21:14:06Z</DateUtc></StartTime><FrequencyChanges><FrequencyChange><Frequency dt:dt=""r8"">10000000</Frequency><Timestamp dt:dt=""r8"">19836278556474</Timestamp><Current dt:dt=""r8"">0</Current><DateUtc dt:dt=""string"">2025-02-05T21:14:06Z</DateUtc></FrequencyChange></FrequencyChanges></Clock>\n",3.0.3.43,3.0.3.60,3.0.3.60,Full,1.0.0.8,Keyboard,Keyboard
Proc4,9,List12,1,9,,,,,,99,3,98,99,Keyboard,623,3,0,,,,,,,,,,,,,,,,,,,,,,,,,,,,,,,,,,,,,,,,,,,,DelayDiscountingTitrated,02-05-2025,16:14:07,2/5/2025 9:14:07 PM,1118,1,11,DelayDiscountingTitrated-1118-1,2123007115,1,75.005,"<?xml version=""1.0""?>\n<Clock xmlns:dt=""urn:schemas-microsoft-com:datatypes""><Description dt:dt=""string"">E-Prime Primary Realtime Clock</Description><StartTime><Timestamp dt:dt=""int"">0</Timestamp><DateUtc dt:dt=""string"">2025-02-05T21:14:06Z</DateUtc></StartTime><FrequencyChanges><FrequencyChange><Frequency dt:dt=""r8"">10000000</Frequency><Timestamp dt:dt=""r8"">19836278556474</Timestamp><Current dt:dt=""r8"">0</Current><DateUtc dt:dt=""string"">2025-02-05T21:14:06Z</DateUtc></FrequencyChange></FrequencyChanges></Clock>\n",3.0.3.43,3.0.3.60,3.0.3.60,Full,1.0.0.8,Keyboard,Keyboard
discount4,,List7,,,,,,,,,,,,,,,,,,200,5 years,1825,1,1,1,,,,,,,,,,,,,,,,,,,,,,,,,,,,,,,,,,,,DelayDiscountingTitrated,02-05-2025,16:14:07,2/5/2025 9:14:07 PM,1118,1,11,DelayDiscountingTitrated-1118-1,2123007115,1,75.005,"<?xml version=""1.0""?>\n<Clock xmlns:dt=""urn:schemas-microsoft-com:datatypes""><Description dt:dt=""string"">E-Prime Primary Realtime Clock</Description><StartTime><Timestamp dt:dt=""int"">0</Timestamp><DateUtc dt:dt=""string"">2025-02-05T21:14:06Z</DateUtc></StartTime><FrequencyChanges><FrequencyChange><Frequency dt:dt=""r8"">10000000</Frequency><Timestamp dt:dt=""r8"">19836278556474</Timestamp><Current dt:dt=""r8"">0</Current><DateUtc dt:dt=""string"">2025-02-05T21:14:06Z</DateUtc></FrequencyChange></FrequencyChanges></Clock>\n",3.0.3.43,3.0.3.60,3.0.3.60,Full,1.0.0.8,Keyboard,Keyboard
fiveyearproc,,List1,,,,,,,,,,,,,,,,,,,,,,,,5,1,1,1,Keyboard,,,,,,,,,,,,,,,,,,,,,,,,,,,,,,,DelayDiscountingTitrated,02-05-2025,16:14:07,2/5/2025 9:14:07 PM,1118,1,11,DelayDiscountingTitrated-1118-1,2123007115,1,75.005,"<?xml version=""1.0""?>\n<Clock xmlns:dt=""urn:schemas-microsoft-com:datatypes""><Description dt:dt=""string"">E-Prime Primary Realtime Clock</Description><StartTime><Timestamp dt:dt=""int"">0</Timestamp><DateUtc dt:dt=""string"">2025-02-05T21:14:06Z</DateUtc></StartTime><FrequencyChanges><FrequencyChange><Frequency dt:dt=""r8"">10000000</Frequency><Timestamp dt:dt=""r8"">19836278556474</Timestamp><Current dt:dt=""r8"">0</Current><DateUtc dt:dt=""string"">2025-02-05T21:14:06Z</DateUtc></FrequencyChange></FrequencyChanges></Clock>\n",3.0.3.43,3.0.3.60,3.0.3.60,Full,1.0.0.8,Keyboard,Keyboard
Init5,,List13,,,Keyboard,2016,1,0,,250,1,500,,,,,,,,,,,,,,,,,,,1,1,1,,,,,,,,,,,,,,,,,,,,,,,,,,,,DelayDiscountingTitrated,02-05-2025,16:14:07,2/5/2025 9:14:07 PM,1118,1,11,DelayDiscountingTitrated-1118-1,2123007115,1,75.005,"<?xml version=""1.0""?>\n<Clock xmlns:dt=""urn:schemas-microsoft-com:datatypes""><Description dt:dt=""string"">E-Prime Primary Realtime Clock</Description><StartTime><Timestamp dt:dt=""int"">0</Timestamp><DateUtc dt:dt=""string"">2025-02-05T21:14:06Z</DateUtc></StartTime><FrequencyChanges><FrequencyChange><Frequency dt:dt=""r8"">10000000</Frequency><Timestamp dt:dt=""r8"">19836278556474</Timestamp><Current dt:dt=""r8"">0</Current><DateUtc dt:dt=""string"">2025-02-05T21:14:06Z</DateUtc></FrequencyChange></FrequencyChanges></Clock>\n",3.0.3.43,3.0.3.60,3.0.3.60,Full,1.0.0.8,Keyboard,Keyboard
Proc5,,List13,,,,,,,,125,1,250,250,Keyboard,3138,1,0,,125,,,,,,,,,,,,2,1,2,,,,,,,,,,,,,,,,,,,,,,,,,,,,DelayDiscountingTitrated,02-05-2025,16:14:07,2/5/2025 9:14:07 PM,1118,1,11,DelayDiscountingTitrated-1118-1,2123007115,1,75.005,"<?xml version=""1.0""?>\n<Clock xmlns:dt=""urn:schemas-microsoft-com:datatypes""><Description dt:dt=""string"">E-Prime Primary Realtime Clock</Description><StartTime><Timestamp dt:dt=""int"">0</Timestamp><DateUtc dt:dt=""string"">2025-02-05T21:14:06Z</DateUtc></StartTime><FrequencyChanges><FrequencyChange><Frequency dt:dt=""r8"">10000000</Frequency><Timestamp dt:dt=""r8"">19836278556474</Timestamp><Current dt:dt=""r8"">0</Current><DateUtc dt:dt=""string"">2025-02-05T21:14:06Z</DateUtc></FrequencyChange></FrequencyChanges></Clock>\n",3.0.3.43,3.0.3.60,3.0.3.60,Full,1.0.0.8,Keyboard,Keyboard
Proc5,,List13,,,,,,,,63,1,125,125,Keyboard,2774,1,0,,62,,,,,,,,,,,,3,1,3,,,,,,,,,,,,,,,,,,,,,,,,,,,,DelayDiscountingTitrated,02-05-2025,16:14:07,2/5/2025 9:14:07 PM,1118,1,11,DelayDiscountingTitrated-1118-1,2123007115,1,75.005,"<?xml version=""1.0""?>\n<Clock xmlns:dt=""urn:schemas-microsoft-com:datatypes""><Description dt:dt=""string"">E-Prime Primary Realtime Clock</Description><StartTime><Timestamp dt:dt=""int"">0</Timestamp><DateUtc dt:dt=""string"">2025-02-05T21:14:06Z</DateUtc></StartTime><FrequencyChanges><FrequencyChange><Frequency dt:dt=""r8"">10000000</Frequency><Timestamp dt:dt=""r8"">19836278556474</Timestamp><Current dt:dt=""r8"">0</Current><DateUtc dt:dt=""string"">2025-02-05T21:14:06Z</DateUtc></FrequencyChange></FrequencyChanges></Clock>\n",3.0.3.43,3.0.3.60,3.0.3.60,Full,1.0.0.8,Keyboard,Keyboard
Proc5,,List13,,,,,,,,94,3,63,63,Keyboard,912,3,0,,31,,,,,,,,,,,,4,1,4,,,,,,,,,,,,,,,,,,,,,,,,,,,,DelayDiscountingTitrated,02-05-2025,16:14:07,2/5/2025 9:14:07 PM,1118,1,11,DelayDiscountingTitrated-1118-1,2123007115,1,75.005,"<?xml version=""1.0""?>\n<Clock xmlns:dt=""urn:schemas-microsoft-com:datatypes""><Description dt:dt=""string"">E-Prime Primary Realtime Clock</Description><StartTime><Timestamp dt:dt=""int"">0</Timestamp><DateUtc dt:dt=""string"">2025-02-05T21:14:06Z</DateUtc></StartTime><FrequencyChanges><FrequencyChange><Frequency dt:dt=""r8"">10000000</Frequency><Timestamp dt:dt=""r8"">19836278556474</Timestamp><Current dt:dt=""r8"">0</Current><DateUtc dt:dt=""string"">2025-02-05T21:14:06Z</DateUtc></FrequencyChange></FrequencyChanges></Clock>\n",3.0.3.43,3.0.3.60,3.0.3.60,Full,1.0.0.8,Keyboard,Keyboard
Proc5,,List13,,,,,,,,110,3,94,94,Keyboard,773,3,0,,16,,,,,,,,,,,,5,1,5,,,,,,,,,,,,,,,,,,,,,,,,,,,,DelayDiscountingTitrated,02-05-2025,16:14:07,2/5/2025 9:14:07 PM,1118,1,11,DelayDiscountingTitrated-1118-1,2123007115,1,75.005,"<?xml version=""1.0""?>\n<Clock xmlns:dt=""urn:schemas-microsoft-com:datatypes""><Description dt:dt=""string"">E-Prime Primary Realtime Clock</Description><StartTime><Timestamp dt:dt=""int"">0</Timestamp><DateUtc dt:dt=""string"">2025-02-05T21:14:06Z</DateUtc></StartTime><FrequencyChanges><FrequencyChange><Frequency dt:dt=""r8"">10000000</Frequency><Timestamp dt:dt=""r8"">19836278556474</Timestamp><Current dt:dt=""r8"">0</Current><DateUtc dt:dt=""string"">2025-02-05T21:14:06Z</DateUtc></FrequencyChange></FrequencyChanges></Clock>\n",3.0.3.43,3.0.3.60,3.0.3.60,Full,1.0.0.8,Keyboard,Keyboard
Proc5,,List13,,,,,,,,118,3,110,110,Keyboard,1030,3,0,,8,,,,,,,,,,,,6,1,6,,,,,,,,,,,,,,,,,,,,,,,,,,,,DelayDiscountingTitrated,02-05-2025,16:14:07,2/5/2025 9:14:07 PM,1118,1,11,DelayDiscountingTitrated-1118-1,2123007115,1,75.005,"<?xml version=""1.0""?>\n<Clock xmlns:dt=""urn:schemas-microsoft-com:datatypes""><Description dt:dt=""string"">E-Prime Primary Realtime Clock</Description><StartTime><Timestamp dt:dt=""int"">0</Timestamp><DateUtc dt:dt=""string"">2025-02-05T21:14:06Z</DateUtc></StartTime><FrequencyChanges><FrequencyChange><Frequency dt:dt=""r8"">10000000</Frequency><Timestamp dt:dt=""r8"">19836278556474</Timestamp><Current dt:dt=""r8"">0</Current><DateUtc dt:dt=""string"">2025-02-05T21:14:06Z</DateUtc></FrequencyChange></FrequencyChanges></Clock>\n",3.0.3.43,3.0.3.60,3.0.3.60,Full,1.0.0.8,Keyboard,Keyboard
Proc5,,List13,,,,,,,,122,3,118,118,Keyboard,789,3,0,,4,,,,,,,,,,,,7,1,7,,,,,,,,,,,,,,,,,,,,,,,,,,,,DelayDiscountingTitrated,02-05-2025,16:14:07,2/5/2025 9:14:07 PM,1118,1,11,DelayDiscountingTitrated-1118-1,2123007115,1,75.005,"<?xml version=""1.0""?>\n<Clock xmlns:dt=""urn:schemas-microsoft-com:datatypes""><Description dt:dt=""string"">E-Prime Primary Realtime Clock</Description><StartTime><Timestamp dt:dt=""int"">0</Timestamp><DateUtc dt:dt=""string"">2025-02-05T21:14:06Z</DateUtc></StartTime><FrequencyChanges><FrequencyChange><Frequency dt:dt=""r8"">10000000</Frequency><Timestamp dt:dt=""r8"">19836278556474</Timestamp><Current dt:dt=""r8"">0</Current><DateUtc dt:dt=""string"">2025-02-05T21:14:06Z</DateUtc></FrequencyChange></FrequencyChanges></Clock>\n",3.0.3.43,3.0.3.60,3.0.3.60,Full,1.0.0.8,Keyboard,Keyboard
Proc5,,List13,,,,,,,,124,3,122,122,Keyboard,785,3,0,,2,,,,,,,,,,,,8,1,8,,,,,,,,,,,,,,,,,,,,,,,,,,,,DelayDiscountingTitrated,02-05-2025,16:14:07,2/5/2025 9:14:07 PM,1118,1,11,DelayDiscountingTitrated-1118-1,2123007115,1,75.005,"<?xml version=""1.0""?>\n<Clock xmlns:dt=""urn:schemas-microsoft-com:datatypes""><Description dt:dt=""string"">E-Prime Primary Realtime Clock</Description><StartTime><Timestamp dt:dt=""int"">0</Timestamp><DateUtc dt:dt=""string"">2025-02-05T21:14:06Z</DateUtc></StartTime><FrequencyChanges><FrequencyChange><Frequency dt:dt=""r8"">10000000</Frequency><Timestamp dt:dt=""r8"">19836278556474</Timestamp><Current dt:dt=""r8"">0</Current><DateUtc dt:dt=""string"">2025-02-05T21:14:06Z</DateUtc></FrequencyChange></FrequencyChanges></Clock>\n",3.0.3.43,3.0.3.60,3.0.3.60,Full,1.0.0.8,Keyboard,Keyboard
Proc5,,List13,,,,,,,,123,1,124,124,Keyboard,732,1,0,,1,,,,,,,,,,,,9,1,9,,,,,,,,,,,,,,,,,,,,,,,,,,,,DelayDiscountingTitrated,02-05-2025,16:14:07,2/5/2025 9:14:07 PM,1118,1,11,DelayDiscountingTitrated-1118-1,2123007115,1,75.005,"<?xml version=""1.0""?>\n<Clock xmlns:dt=""urn:schemas-microsoft-com:datatypes""><Description dt:dt=""string"">E-Prime Primary Realtime Clock</Description><StartTime><Timestamp dt:dt=""int"">0</Timestamp><DateUtc dt:dt=""string"">2025-02-05T21:14:06Z</DateUtc></StartTime><FrequencyChanges><FrequencyChange><Frequency dt:dt=""r8"">10000000</Frequency><Timestamp dt:dt=""r8"">19836278556474</Timestamp><Current dt:dt=""r8"">0</Current><DateUtc dt:dt=""string"">2025-02-05T21:14:06Z</DateUtc></FrequencyChange></FrequencyChanges></Clock>\n",3.0.3.43,3.0.3.60,3.0.3.60,Full,1.0.0.8,Keyboard,Keyboard
Proc5,,List13,,,,,,,,123,3,124,123,Keyboard,858,3,0,,,,,,,,,,,,,,10,1,10,,,,,,,,,,,,,,,,,,,,,,,,,,,,DelayDiscountingTitrated,02-05-2025,16:14:07,2/5/2025 9:14:07 PM,1118,1,11,DelayDiscountingTitrated-1118-1,2123007115,1,75.005,"<?xml version=""1.0""?>\n<Clock xmlns:dt=""urn:schemas-microsoft-com:datatypes""><Description dt:dt=""string"">E-Prime Primary Realtime Clock</Description><StartTime><Timestamp dt:dt=""int"">0</Timestamp><DateUtc dt:dt=""string"">2025-02-05T21:14:06Z</DateUtc></StartTime><FrequencyChanges><FrequencyChange><Frequency dt:dt=""r8"">10000000</Frequency><Timestamp dt:dt=""r8"">19836278556474</Timestamp><Current dt:dt=""r8"">0</Current><DateUtc dt:dt=""string"">2025-02-05T21:14:06Z</DateUtc></FrequencyChange></FrequencyChanges></Clock>\n",3.0.3.43,3.0.3.60,3.0.3.60,Full,1.0.0.8,Keyboard,Keyboard
discount5,,List8,,,,,,,,,,,,,,,,,,500,15 years,5475,,,,,,,,,,,,2,2,1,,,,,,,,,,,,,,,,,,,,,,,,,DelayDiscountingTitrated,02-05-2025,16:14:07,2/5/2025 9:14:07 PM,1118,1,11,DelayDiscountingTitrated-1118-1,2123007115,1,75.005,"<?xml version=""1.0""?>\n<Clock xmlns:dt=""urn:schemas-microsoft-com:datatypes""><Description dt:dt=""string"">E-Prime Primary Realtime Clock</Description><StartTime><Timestamp dt:dt=""int"">0</Timestamp><DateUtc dt:dt=""string"">2025-02-05T21:14:06Z</DateUtc></StartTime><FrequencyChanges><FrequencyChange><Frequency dt:dt=""r8"">10000000</Frequency><Timestamp dt:dt=""r8"">19836278556474</Timestamp><Current dt:dt=""r8"">0</Current><DateUtc dt:dt=""string"">2025-02-05T21:14:06Z</DateUtc></FrequencyChange></FrequencyChanges></Clock>\n",3.0.3.43,3.0.3.60,3.0.3.60,Full,1.0.0.8,Keyboard,Keyboard
fifteenyearproc,,List1,,,,,,,,,,,,,,,,,,,,,,,,6,1,2,2,Keyboard,,,,,,,,,,,,,,,,,,,,,,,,,,,,,,,DelayDiscountingTitrated,02-05-2025,16:14:07,2/5/2025 9:14:07 PM,1118,1,11,DelayDiscountingTitrated-1118-1,2123007115,1,75.005,"<?xml version=""1.0""?>\n<Clock xmlns:dt=""urn:schemas-microsoft-com:datatypes""><Description dt:dt=""string"">E-Prime Primary Realtime Clock</Description><StartTime><Timestamp dt:dt=""int"">0</Timestamp><DateUtc dt:dt=""string"">2025-02-05T21:14:06Z</DateUtc></StartTime><FrequencyChanges><FrequencyChange><Frequency dt:dt=""r8"">10000000</Frequency><Timestamp dt:dt=""r8"">19836278556474</Timestamp><Current dt:dt=""r8"">0</Current><DateUtc dt:dt=""string"">2025-02-05T21:14:06Z</DateUtc></FrequencyChange></FrequencyChanges></Clock>\n",3.0.3.43,3.0.3.60,3.0.3.60,Full,1.0.0.8,Keyboard,Keyboard
TrialProcInit,,List2,,,Keyboard,1968,3,0,,600,3,200,,,,,,,,,,,,,,,,,,,,,,,,,1,1,1,,,,,,,,,,,,,,,,,,,,,,DelayDiscountingTitrated,02-05-2025,16:14:07,2/5/2025 9:14:07 PM,1118,1,11,DelayDiscountingTitrated-1118-1,2123007115,1,75.005,"<?xml version=""1.0""?>\n<Clock xmlns:dt=""urn:schemas-microsoft-com:datatypes""><Description dt:dt=""string"">E-Prime Primary Realtime Clock</Description><StartTime><Timestamp dt:dt=""int"">0</Timestamp><DateUtc dt:dt=""string"">2025-02-05T21:14:06Z</DateUtc></StartTime><FrequencyChanges><FrequencyChange><Frequency dt:dt=""r8"">10000000</Frequency><Timestamp dt:dt=""r8"">19836278556474</Timestamp><Current dt:dt=""r8"">0</Current><DateUtc dt:dt=""string"">2025-02-05T21:14:06Z</DateUtc></FrequencyChange></FrequencyChanges></Clock>\n",3.0.3.43,3.0.3.60,3.0.3.60,Full,1.0.0.8,Keyboard,Keyboard
TrialProc,,List2,,,,,,,,800,3,600,600,Keyboard,1172,3,0,,200,,,,,,,,,,,,,,,,,,2,1,2,,,,,,,,,,,,,,,,,,,,,,DelayDiscountingTitrated,02-05-2025,16:14:07,2/5/2025 9:14:07 PM,1118,1,11,DelayDiscountingTitrated-1118-1,2123007115,1,75.005,"<?xml version=""1.0""?>\n<Clock xmlns:dt=""urn:schemas-microsoft-com:datatypes""><Description dt:dt=""string"">E-Prime Primary Realtime Clock</Description><StartTime><Timestamp dt:dt=""int"">0</Timestamp><DateUtc dt:dt=""string"">2025-02-05T21:14:06Z</DateUtc></StartTime><FrequencyChanges><FrequencyChange><Frequency dt:dt=""r8"">10000000</Frequency><Timestamp dt:dt=""r8"">19836278556474</Timestamp><Current dt:dt=""r8"">0</Current><DateUtc dt:dt=""string"">2025-02-05T21:14:06Z</DateUtc></FrequencyChange></FrequencyChanges></Clock>\n",3.0.3.43,3.0.3.60,3.0.3.60,Full,1.0.0.8,Keyboard,Keyboard
TrialProc,,List2,,,,,,,,900,3,800,800,Keyboard,595,3,0,,100,,,,,,,,,,,,,,,,,,3,1,3,,,,,,,,,,,,,,,,,,,,,,DelayDiscountingTitrated,02-05-2025,16:14:07,2/5/2025 9:14:07 PM,1118,1,11,DelayDiscountingTitrated-1118-1,2123007115,1,75.005,"<?xml version=""1.0""?>\n<Clock xmlns:dt=""urn:schemas-microsoft-com:datatypes""><Description dt:dt=""string"">E-Prime Primary Realtime Clock</Description><StartTime><Timestamp dt:dt=""int"">0</Timestamp><DateUtc dt:dt=""string"">2025-02-05T21:14:06Z</DateUtc></StartTime><FrequencyChanges><FrequencyChange><Frequency dt:dt=""r8"">10000000</Frequency><Timestamp dt:dt=""r8"">19836278556474</Timestamp><Current dt:dt=""r8"">0</Current><DateUtc dt:dt=""string"">2025-02-05T21:14:06Z</DateUtc></FrequencyChange></FrequencyChanges></Clock>\n",3.0.3.43,3.0.3.60,3.0.3.60,Full,1.0.0.8,Keyboard,Keyboard
TrialProc,,List2,,,,,,,,950,3,900,900,Keyboard,761,3,0,,50,,,,,,,,,,,,,,,,,,4,1,4,,,,,,,,,,,,,,,,,,,,,,DelayDiscountingTitrated,02-05-2025,16:14:07,2/5/2025 9:14:07 PM,1118,1,11,DelayDiscountingTitrated-1118-1,2123007115,1,75.005,"<?xml version=""1.0""?>\n<Clock xmlns:dt=""urn:schemas-microsoft-com:datatypes""><Description dt:dt=""string"">E-Prime Primary Realtime Clock</Description><StartTime><Timestamp dt:dt=""int"">0</Timestamp><DateUtc dt:dt=""string"">2025-02-05T21:14:06Z</DateUtc></StartTime><FrequencyChanges><FrequencyChange><Frequency dt:dt=""r8"">10000000</Frequency><Timestamp dt:dt=""r8"">19836278556474</Timestamp><Current dt:dt=""r8"">0</Current><DateUtc dt:dt=""string"">2025-02-05T21:14:06Z</DateUtc></FrequencyChange></FrequencyChanges></Clock>\n",3.0.3.43,3.0.3.60,3.0.3.60,Full,1.0.0.8,Keyboard,Keyboard
TrialProc,,List2,,,,,,,,975,3,950,950,Keyboard,582,3,0,,25,,,,,,,,,,,,,,,,,,5,1,5,,,,,,,,,,,,,,,,,,,,,,DelayDiscountingTitrated,02-05-2025,16:14:07,2/5/2025 9:14:07 PM,1118,1,11,DelayDiscountingTitrated-1118-1,2123007115,1,75.005,"<?xml version=""1.0""?>\n<Clock xmlns:dt=""urn:schemas-microsoft-com:datatypes""><Description dt:dt=""string"">E-Prime Primary Realtime Clock</Description><StartTime><Timestamp dt:dt=""int"">0</Timestamp><DateUtc dt:dt=""string"">2025-02-05T21:14:06Z</DateUtc></StartTime><FrequencyChanges><FrequencyChange><Frequency dt:dt=""r8"">10000000</Frequency><Timestamp dt:dt=""r8"">19836278556474</Timestamp><Current dt:dt=""r8"">0</Current><DateUtc dt:dt=""string"">2025-02-05T21:14:06Z</DateUtc></FrequencyChange></FrequencyChanges></Clock>\n",3.0.3.43,3.0.3.60,3.0.3.60,Full,1.0.0.8,Keyboard,Keyboard
TrialProc,,List2,,,,,,,,987,3,975,975,Keyboard,457,3,0,,12,,,,,,,,,,,,,,,,,,6,1,6,,,,,,,,,,,,,,,,,,,,,,DelayDiscountingTitrated,02-05-2025,16:14:07,2/5/2025 9:14:07 PM,1118,1,11,DelayDiscountingTitrated-1118-1,2123007115,1,75.005,"<?xml version=""1.0""?>\n<Clock xmlns:dt=""urn:schemas-microsoft-com:datatypes""><Description dt:dt=""string"">E-Prime Primary Realtime Clock</Description><StartTime><Timestamp dt:dt=""int"">0</Timestamp><DateUtc dt:dt=""string"">2025-02-05T21:14:06Z</DateUtc></StartTime><FrequencyChanges><FrequencyChange><Frequency dt:dt=""r8"">10000000</Frequency><Timestamp dt:dt=""r8"">19836278556474</Timestamp><Current dt:dt=""r8"">0</Current><DateUtc dt:dt=""string"">2025-02-05T21:14:06Z</DateUtc></FrequencyChange></FrequencyChanges></Clock>\n",3.0.3.43,3.0.3.60,3.0.3.60,Full,1.0.0.8,Keyboard,Keyboard
TrialProc,,List2,,,,,,,,993,3,987,987,Keyboard,496,3,0,,6,,,,,,,,,,,,,,,,,,7,1,7,,,,,,,,,,,,,,,,,,,,,,DelayDiscountingTitrated,02-05-2025,16:14:07,2/5/2025 9:14:07 PM,1118,1,11,DelayDiscountingTitrated-1118-1,2123007115,1,75.005,"<?xml version=""1.0""?>\n<Clock xmlns:dt=""urn:schemas-microsoft-com:datatypes""><Description dt:dt=""string"">E-Prime Primary Realtime Clock</Description><StartTime><Timestamp dt:dt=""int"">0</Timestamp><DateUtc dt:dt=""string"">2025-02-05T21:14:06Z</DateUtc></StartTime><FrequencyChanges><FrequencyChange><Frequency dt:dt=""r8"">10000000</Frequency><Timestamp dt:dt=""r8"">19836278556474</Timestamp><Current dt:dt=""r8"">0</Current><DateUtc dt:dt=""string"">2025-02-05T21:14:06Z</DateUtc></FrequencyChange></FrequencyChanges></Clock>\n",3.0.3.43,3.0.3.60,3.0.3.60,Full,1.0.0.8,Keyboard,Keyboard
TrialProc,,List2,,,,,,,,997,3,993,993,Keyboard,418,3,0,,4,,,,,,,,,,,,,,,,,,8,1,8,,,,,,,,,,,,,,,,,,,,,,DelayDiscountingTitrated,02-05-2025,16:14:07,2/5/2025 9:14:07 PM,1118,1,11,DelayDiscountingTitrated-1118-1,2123007115,1,75.005,"<?xml version=""1.0""?>\n<Clock xmlns:dt=""urn:schemas-microsoft-com:datatypes""><Description dt:dt=""string"">E-Prime Primary Realtime Clock</Description><StartTime><Timestamp dt:dt=""int"">0</Timestamp><DateUtc dt:dt=""string"">2025-02-05T21:14:06Z</DateUtc></StartTime><FrequencyChanges><FrequencyChange><Frequency dt:dt=""r8"">10000000</Frequency><Timestamp dt:dt=""r8"">19836278556474</Timestamp><Current dt:dt=""r8"">0</Current><DateUtc dt:dt=""string"">2025-02-05T21:14:06Z</DateUtc></FrequencyChange></FrequencyChanges></Clock>\n",3.0.3.43,3.0.3.60,3.0.3.60,Full,1.0.0.8,Keyboard,Keyboard
TrialProc,,List2,,,,,,,,999,3,997,997,Keyboard,344,3,0,,2,,,,,,,,,,,,,,,,,,9,1,9,,,,,,,,,,,,,,,,,,,,,,DelayDiscountingTitrated,02-05-2025,16:14:07,2/5/2025 9:14:07 PM,1118,1,11,DelayDiscountingTitrated-1118-1,2123007115,1,75.005,"<?xml version=""1.0""?>\n<Clock xmlns:dt=""urn:schemas-microsoft-com:datatypes""><Description dt:dt=""string"">E-Prime Primary Realtime Clock</Description><StartTime><Timestamp dt:dt=""int"">0</Timestamp><DateUtc dt:dt=""string"">2025-02-05T21:14:06Z</DateUtc></StartTime><FrequencyChanges><FrequencyChange><Frequency dt:dt=""r8"">10000000</Frequency><Timestamp dt:dt=""r8"">19836278556474</Timestamp><Current dt:dt=""r8"">0</Current><DateUtc dt:dt=""string"">2025-02-05T21:14:06Z</DateUtc></FrequencyChange></FrequencyChanges></Clock>\n",3.0.3.43,3.0.3.60,3.0.3.60,Full,1.0.0.8,Keyboard,Keyboard
TrialProc,,List2,,,,,,,,999,3,,999,Keyboard,677,3,0,,,,,,,,,,,,,,,,,,,,10,1,10,,,,,,,,,,,,,,,,,,,,,,DelayDiscountingTitrated,02-05-2025,16:14:07,2/5/2025 9:14:07 PM,1118,1,11,DelayDiscountingTitrated-1118-1,2123007115,1,75.005,"<?xml version=""1.0""?>\n<Clock xmlns:dt=""urn:schemas-microsoft-com:datatypes""><Description dt:dt=""string"">E-Prime Primary Realtime Clock</Description><StartTime><Timestamp dt:dt=""int"">0</Timestamp><DateUtc dt:dt=""string"">2025-02-05T21:14:06Z</DateUtc></StartTime><FrequencyChanges><FrequencyChange><Frequency dt:dt=""r8"">10000000</Frequency><Timestamp dt:dt=""r8"">19836278556474</Timestamp><Current dt:dt=""r8"">0</Current><DateUtc dt:dt=""string"">2025-02-05T21:14:06Z</DateUtc></FrequencyChange></FrequencyChanges></Clock>\n",3.0.3.43,3.0.3.60,3.0.3.60,Full,1.0.0.8,Keyboard,Keyboard
discount,,List3,,,,,,,,,,,,,,,,,,200,1 week,7,,,,,,,,,,,,,,,,,,1,1,1,,,,,,,,,,,,,,,,,,,DelayDiscountingTitrated,02-05-2025,16:14:07,2/5/2025 9:14:07 PM,1118,1,11,DelayDiscountingTitrated-1118-1,2123007115,1,75.005,"<?xml version=""1.0""?>\n<Clock xmlns:dt=""urn:schemas-microsoft-com:datatypes""><Description dt:dt=""string"">E-Prime Primary Realtime Clock</Description><StartTime><Timestamp dt:dt=""int"">0</Timestamp><DateUtc dt:dt=""string"">2025-02-05T21:14:06Z</DateUtc></StartTime><FrequencyChanges><FrequencyChange><Frequency dt:dt=""r8"">10000000</Frequency><Timestamp dt:dt=""r8"">19836278556474</Timestamp><Current dt:dt=""r8"">0</Current><DateUtc dt:dt=""string"">2025-02-05T21:14:06Z</DateUtc></FrequencyChange></FrequencyChanges></Clock>\n",3.0.3.43,3.0.3.60,3.0.3.60,Full,1.0.0.8,Keyboard,Keyboard
onewkproc,,List1,,,,,,,,,,,,,,,,,,,,,,,,1,1,3,3,Keyboard,,,,,,,,,,,,,,,,,,,,,,,,,,,,,,,DelayDiscountingTitrated,02-05-2025,16:14:07,2/5/2025 9:14:07 PM,1118,1,11,DelayDiscountingTitrated-1118-1,2123007115,1,75.005,"<?xml version=""1.0""?>\n<Clock xmlns:dt=""urn:schemas-microsoft-com:datatypes""><Description dt:dt=""string"">E-Prime Primary Realtime Clock</Description><StartTime><Timestamp dt:dt=""int"">0</Timestamp><DateUtc dt:dt=""string"">2025-02-05T21:14:06Z</DateUtc></StartTime><FrequencyChanges><FrequencyChange><Frequency dt:dt=""r8"">10000000</Frequency><Timestamp dt:dt=""r8"">19836278556474</Timestamp><Current dt:dt=""r8"">0</Current><DateUtc dt:dt=""string"">2025-02-05T21:14:06Z</DateUtc></FrequencyChange></FrequencyChanges></Clock>\n",3.0.3.43,3.0.3.60,3.0.3.60,Full,1.0.0.8,Keyboard,Keyboard
Init3,,List11,,,Keyboard,1547,3,0,,600,3,200,,,,,,,,,,,,,,,,,,,,,,,,,,,,,,,1,1,1,,,,,,,,,,,,,,,,DelayDiscountingTitrated,02-05-2025,16:14:07,2/5/2025 9:14:07 PM,1118,1,11,DelayDiscountingTitrated-1118-1,2123007115,1,75.005,"<?xml version=""1.0""?>\n<Clock xmlns:dt=""urn:schemas-microsoft-com:datatypes""><Description dt:dt=""string"">E-Prime Primary Realtime Clock</Description><StartTime><Timestamp dt:dt=""int"">0</Timestamp><DateUtc dt:dt=""string"">2025-02-05T21:14:06Z</DateUtc></StartTime><FrequencyChanges><FrequencyChange><Frequency dt:dt=""r8"">10000000</Frequency><Timestamp dt:dt=""r8"">19836278556474</Timestamp><Current dt:dt=""r8"">0</Current><DateUtc dt:dt=""string"">2025-02-05T21:14:06Z</DateUtc></FrequencyChange></FrequencyChanges></Clock>\n",3.0.3.43,3.0.3.60,3.0.3.60,Full,1.0.0.8,Keyboard,Keyboard
Proc3,,List11,,,,,,,,800,3,600,600,Keyboard,75,3,0,,200,,,,,,,,,,,,,,,,,,,,,,,,2,1,2,,,,,,,,,,,,,,,,DelayDiscountingTitrated,02-05-2025,16:14:07,2/5/2025 9:14:07 PM,1118,1,11,DelayDiscountingTitrated-1118-1,2123007115,1,75.005,"<?xml version=""1.0""?>\n<Clock xmlns:dt=""urn:schemas-microsoft-com:datatypes""><Description dt:dt=""string"">E-Prime Primary Realtime Clock</Description><StartTime><Timestamp dt:dt=""int"">0</Timestamp><DateUtc dt:dt=""string"">2025-02-05T21:14:06Z</DateUtc></StartTime><FrequencyChanges><FrequencyChange><Frequency dt:dt=""r8"">10000000</Frequency><Timestamp dt:dt=""r8"">19836278556474</Timestamp><Current dt:dt=""r8"">0</Current><DateUtc dt:dt=""string"">2025-02-05T21:14:06Z</DateUtc></FrequencyChange></FrequencyChanges></Clock>\n",3.0.3.43,3.0.3.60,3.0.3.60,Full,1.0.0.8,Keyboard,Keyboard
Proc3,,List11,,,,,,,,900,3,800,800,Keyboard,233,3,0,,100,,,,,,,,,,,,,,,,,,,,,,,,3,1,3,,,,,,,,,,,,,,,,DelayDiscountingTitrated,02-05-2025,16:14:07,2/5/2025 9:14:07 PM,1118,1,11,DelayDiscountingTitrated-1118-1,2123007115,1,75.005,"<?xml version=""1.0""?>\n<Clock xmlns:dt=""urn:schemas-microsoft-com:datatypes""><Description dt:dt=""string"">E-Prime Primary Realtime Clock</Description><StartTime><Timestamp dt:dt=""int"">0</Timestamp><DateUtc dt:dt=""string"">2025-02-05T21:14:06Z</DateUtc></StartTime><FrequencyChanges><FrequencyChange><Frequency dt:dt=""r8"">10000000</Frequency><Timestamp dt:dt=""r8"">19836278556474</Timestamp><Current dt:dt=""r8"">0</Current><DateUtc dt:dt=""string"">2025-02-05T21:14:06Z</DateUtc></FrequencyChange></FrequencyChanges></Clock>\n",3.0.3.43,3.0.3.60,3.0.3.60,Full,1.0.0.8,Keyboard,Keyboard
Proc3,,List11,,,,,,,,950,3,900,900,Keyboard,426,3,0,,50,,,,,,,,,,,,,,,,,,,,,,,,4,1,4,,,,,,,,,,,,,,,,DelayDiscountingTitrated,02-05-2025,16:14:07,2/5/2025 9:14:07 PM,1118,1,11,DelayDiscountingTitrated-1118-1,2123007115,1,75.005,"<?xml version=""1.0""?>\n<Clock xmlns:dt=""urn:schemas-microsoft-com:datatypes""><Description dt:dt=""string"">E-Prime Primary Realtime Clock</Description><StartTime><Timestamp dt:dt=""int"">0</Timestamp><DateUtc dt:dt=""string"">2025-02-05T21:14:06Z</DateUtc></StartTime><FrequencyChanges><FrequencyChange><Frequency dt:dt=""r8"">10000000</Frequency><Timestamp dt:dt=""r8"">19836278556474</Timestamp><Current dt:dt=""r8"">0</Current><DateUtc dt:dt=""string"">2025-02-05T21:14:06Z</DateUtc></FrequencyChange></FrequencyChanges></Clock>\n",3.0.3.43,3.0.3.60,3.0.3.60,Full,1.0.0.8,Keyboard,Keyboard
Proc3,,List11,,,,,,,,975,3,950,950,Keyboard,344,3,0,,25,,,,,,,,,,,,,,,,,,,,,,,,5,1,5,,,,,,,,,,,,,,,,DelayDiscountingTitrated,02-05-2025,16:14:07,2/5/2025 9:14:07 PM,1118,1,11,DelayDiscountingTitrated-1118-1,2123007115,1,75.005,"<?xml version=""1.0""?>\n<Clock xmlns:dt=""urn:schemas-microsoft-com:datatypes""><Description dt:dt=""string"">E-Prime Primary Realtime Clock</Description><StartTime><Timestamp dt:dt=""int"">0</Timestamp><DateUtc dt:dt=""string"">2025-02-05T21:14:06Z</DateUtc></StartTime><FrequencyChanges><FrequencyChange><Frequency dt:dt=""r8"">10000000</Frequency><Timestamp dt:dt=""r8"">19836278556474</Timestamp><Current dt:dt=""r8"">0</Current><DateUtc dt:dt=""string"">2025-02-05T21:14:06Z</DateUtc></FrequencyChange></FrequencyChanges></Clock>\n",3.0.3.43,3.0.3.60,3.0.3.60,Full,1.0.0.8,Keyboard,Keyboard
Proc3,,List11,,,,,,,,987,3,975,975,Keyboard,432,3,0,,12,,,,,,,,,,,,,,,,,,,,,,,,6,1,6,,,,,,,,,,,,,,,,DelayDiscountingTitrated,02-05-2025,16:14:07,2/5/2025 9:14:07 PM,1118,1,11,DelayDiscountingTitrated-1118-1,2123007115,1,75.005,"<?xml version=""1.0""?>\n<Clock xmlns:dt=""urn:schemas-microsoft-com:datatypes""><Description dt:dt=""string"">E-Prime Primary Realtime Clock</Description><StartTime><Timestamp dt:dt=""int"">0</Timestamp><DateUtc dt:dt=""string"">2025-02-05T21:14:06Z</DateUtc></StartTime><FrequencyChanges><FrequencyChange><Frequency dt:dt=""r8"">10000000</Frequency><Timestamp dt:dt=""r8"">19836278556474</Timestamp><Current dt:dt=""r8"">0</Current><DateUtc dt:dt=""string"">2025-02-05T21:14:06Z</DateUtc></FrequencyChange></FrequencyChanges></Clock>\n",3.0.3.43,3.0.3.60,3.0.3.60,Full,1.0.0.8,Keyboard,Keyboard
Proc3,,List11,,,,,,,,993,3,987,987,Keyboard,656,3,0,,6,,,,,,,,,,,,,,,,,,,,,,,,7,1,7,,,,,,,,,,,,,,,,DelayDiscountingTitrated,02-05-2025,16:14:07,2/5/2025 9:14:07 PM,1118,1,11,DelayDiscountingTitrated-1118-1,2123007115,1,75.005,"<?xml version=""1.0""?>\n<Clock xmlns:dt=""urn:schemas-microsoft-com:datatypes""><Description dt:dt=""string"">E-Prime Primary Realtime Clock</Description><StartTime><Timestamp dt:dt=""int"">0</Timestamp><DateUtc dt:dt=""string"">2025-02-05T21:14:06Z</DateUtc></StartTime><FrequencyChanges><FrequencyChange><Frequency dt:dt=""r8"">10000000</Frequency><Timestamp dt:dt=""r8"">19836278556474</Timestamp><Current dt:dt=""r8"">0</Current><DateUtc dt:dt=""string"">2025-02-05T21:14:06Z</DateUtc></FrequencyChange></FrequencyChanges></Clock>\n",3.0.3.43,3.0.3.60,3.0.3.60,Full,1.0.0.8,Keyboard,Keyboard
Proc3,,List11,,,,,,,,997,3,993,993,Keyboard,468,3,0,,4,,,,,,,,,,,,,,,,,,,,,,,,8,1,8,,,,,,,,,,,,,,,,DelayDiscountingTitrated,02-05-2025,16:14:07,2/5/2025 9:14:07 PM,1118,1,11,DelayDiscountingTitrated-1118-1,2123007115,1,75.005,"<?xml version=""1.0""?>\n<Clock xmlns:dt=""urn:schemas-microsoft-com:datatypes""><Description dt:dt=""string"">E-Prime Primary Realtime Clock</Description><StartTime><Timestamp dt:dt=""int"">0</Timestamp><DateUtc dt:dt=""string"">2025-02-05T21:14:06Z</DateUtc></StartTime><FrequencyChanges><FrequencyChange><Frequency dt:dt=""r8"">10000000</Frequency><Timestamp dt:dt=""r8"">19836278556474</Timestamp><Current dt:dt=""r8"">0</Current><DateUtc dt:dt=""string"">2025-02-05T21:14:06Z</DateUtc></FrequencyChange></FrequencyChanges></Clock>\n",3.0.3.43,3.0.3.60,3.0.3.60,Full,1.0.0.8,Keyboard,Keyboard
Proc3,,List11,,,,,,,,999,3,997,997,Keyboard,2369,3,0,,2,,,,,,,,,,,,,,,,,,,,,,,,9,1,9,,,,,,,,,,,,,,,,DelayDiscountingTitrated,02-05-2025,16:14:07,2/5/2025 9:14:07 PM,1118,1,11,DelayDiscountingTitrated-1118-1,2123007115,1,75.005,"<?xml version=""1.0""?>\n<Clock xmlns:dt=""urn:schemas-microsoft-com:datatypes""><Description dt:dt=""string"">E-Prime Primary Realtime Clock</Description><StartTime><Timestamp dt:dt=""int"">0</Timestamp><DateUtc dt:dt=""string"">2025-02-05T21:14:06Z</DateUtc></StartTime><FrequencyChanges><FrequencyChange><Frequency dt:dt=""r8"">10000000</Frequency><Timestamp dt:dt=""r8"">19836278556474</Timestamp><Current dt:dt=""r8"">0</Current><DateUtc dt:dt=""string"">2025-02-05T21:14:06Z</DateUtc></FrequencyChange></FrequencyChanges></Clock>\n",3.0.3.43,3.0.3.60,3.0.3.60,Full,1.0.0.8,Keyboard,Keyboard
Proc3,,List11,,,,,,,,998,1,999,999,Keyboard,826,1,0,,1,,,,,,,,,,,,,,,,,,,,,,,,10,1,10,,,,,,,,,,,,,,,,DelayDiscountingTitrated,02-05-2025,16:14:07,2/5/2025 9:14:07 PM,1118,1,11,DelayDiscountingTitrated-1118-1,2123007115,1,75.005,"<?xml version=""1.0""?>\n<Clock xmlns:dt=""urn:schemas-microsoft-com:datatypes""><Description dt:dt=""string"">E-Prime Primary Realtime Clock</Description><StartTime><Timestamp dt:dt=""int"">0</Timestamp><DateUtc dt:dt=""string"">2025-02-05T21:14:06Z</DateUtc></StartTime><FrequencyChanges><FrequencyChange><Frequency dt:dt=""r8"">10000000</Frequency><Timestamp dt:dt=""r8"">19836278556474</Timestamp><Current dt:dt=""r8"">0</Current><DateUtc dt:dt=""string"">2025-02-05T21:14:06Z</DateUtc></FrequencyChange></FrequencyChanges></Clock>\n",3.0.3.43,3.0.3.60,3.0.3.60,Full,1.0.0.8,Keyboard,Keyboard
Proc3,,List11,,,,,,,,998,3,999,998,Keyboard,2935,3,0,,,,,,,,,,,,,,,,,,,,,,,,,,11,1,11,,,,,,,,,,,,,,,,DelayDiscountingTitrated,02-05-2025,16:14:07,2/5/2025 9:14:07 PM,1118,1,11,DelayDiscountingTitrated-1118-1,2123007115,1,75.005,"<?xml version=""1.0""?>\n<Clock xmlns:dt=""urn:schemas-microsoft-com:datatypes""><Description dt:dt=""string"">E-Prime Primary Realtime Clock</Description><StartTime><Timestamp dt:dt=""int"">0</Timestamp><DateUtc dt:dt=""string"">2025-02-05T21:14:06Z</DateUtc></StartTime><FrequencyChanges><FrequencyChange><Frequency dt:dt=""r8"">10000000</Frequency><Timestamp dt:dt=""r8"">19836278556474</Timestamp><Current dt:dt=""r8"">0</Current><DateUtc dt:dt=""string"">2025-02-05T21:14:06Z</DateUtc></FrequencyChange></FrequencyChanges></Clock>\n",3.0.3.43,3.0.3.60,3.0.3.60,Full,1.0.0.8,Keyboard,Keyboard
discount3,,List6,,,,,,,,,,,,,,,,,,200,1 year,365,,,,,,,,,,,,,,,,,,,,,,,,1,1,1,,,,,,,,,,,,,DelayDiscountingTitrated,02-05-2025,16:14:07,2/5/2025 9:14:07 PM,1118,1,11,DelayDiscountingTitrated-1118-1,2123007115,1,75.005,"<?xml version=""1.0""?>\n<Clock xmlns:dt=""urn:schemas-microsoft-com:datatypes""><Description dt:dt=""string"">E-Prime Primary Realtime Clock</Description><StartTime><Timestamp dt:dt=""int"">0</Timestamp><DateUtc dt:dt=""string"">2025-02-05T21:14:06Z</DateUtc></StartTime><FrequencyChanges><FrequencyChange><Frequency dt:dt=""r8"">10000000</Frequency><Timestamp dt:dt=""r8"">19836278556474</Timestamp><Current dt:dt=""r8"">0</Current><DateUtc dt:dt=""string"">2025-02-05T21:14:06Z</DateUtc></FrequencyChange></FrequencyChanges></Clock>\n",3.0.3.43,3.0.3.60,3.0.3.60,Full,1.0.0.8,Keyboard,Keyboard
oneyearproc,,List1,,,,,,,,,,,,,,,,,,,,,,,,4,1,4,4,Keyboard,,,,,,,,,,,,,,,,,,,,,,,,,,,,,,,DelayDiscountingTitrated,02-05-2025,16:14:07,2/5/2025 9:14:07 PM,1118,1,11,DelayDiscountingTitrated-1118-1,2123007115,1,75.005,"<?xml version=""1.0""?>\n<Clock xmlns:dt=""urn:schemas-microsoft-com:datatypes""><Description dt:dt=""string"">E-Prime Primary Realtime Clock</Description><StartTime><Timestamp dt:dt=""int"">0</Timestamp><DateUtc dt:dt=""string"">2025-02-05T21:14:06Z</DateUtc></StartTime><FrequencyChanges><FrequencyChange><Frequency dt:dt=""r8"">10000000</Frequency><Timestamp dt:dt=""r8"">19836278556474</Timestamp><Current dt:dt=""r8"">0</Current><DateUtc dt:dt=""string"">2025-02-05T21:14:06Z</DateUtc></FrequencyChange></FrequencyChanges></Clock>\n",3.0.3.43,3.0.3.60,3.0.3.60,Full,1.0.0.8,Keyboard,Keyboard
Init1,,List9,,,Keyboard,1705,3,0,,900,3,800,,,,,,,,,,,,,,,,,,,,,,,,,,,,,,,,,,,,,1,1,1,,,,,,,,,,DelayDiscountingTitrated,02-05-2025,16:14:07,2/5/2025 9:14:07 PM,1118,1,11,DelayDiscountingTitrated-1118-1,2123007115,1,75.005,"<?xml version=""1.0""?>\n<Clock xmlns:dt=""urn:schemas-microsoft-com:datatypes""><Description dt:dt=""string"">E-Prime Primary Realtime Clock</Description><StartTime><Timestamp dt:dt=""int"">0</Timestamp><DateUtc dt:dt=""string"">2025-02-05T21:14:06Z</DateUtc></StartTime><FrequencyChanges><FrequencyChange><Frequency dt:dt=""r8"">10000000</Frequency><Timestamp dt:dt=""r8"">19836278556474</Timestamp><Current dt:dt=""r8"">0</Current><DateUtc dt:dt=""string"">2025-02-05T21:14:06Z</DateUtc></FrequencyChange></FrequencyChanges></Clock>\n",3.0.3.43,3.0.3.60,3.0.3.60,Full,1.0.0.8,Keyboard,Keyboard
Proc1,,List9,,,,,,,,950,3,900,900,Keyboard,298,3,0,,50,,,,,,,,,,,,,,,,,,,,,,,,,,,,,,2,1,2,,,,,,,,,,DelayDiscountingTitrated,02-05-2025,16:14:07,2/5/2025 9:14:07 PM,1118,1,11,DelayDiscountingTitrated-1118-1,2123007115,1,75.005,"<?xml version=""1.0""?>\n<Clock xmlns:dt=""urn:schemas-microsoft-com:datatypes""><Description dt:dt=""string"">E-Prime Primary Realtime Clock</Description><StartTime><Timestamp dt:dt=""int"">0</Timestamp><DateUtc dt:dt=""string"">2025-02-05T21:14:06Z</DateUtc></StartTime><FrequencyChanges><FrequencyChange><Frequency dt:dt=""r8"">10000000</Frequency><Timestamp dt:dt=""r8"">19836278556474</Timestamp><Current dt:dt=""r8"">0</Current><DateUtc dt:dt=""string"">2025-02-05T21:14:06Z</DateUtc></FrequencyChange></FrequencyChanges></Clock>\n",3.0.3.43,3.0.3.60,3.0.3.60,Full,1.0.0.8,Keyboard,Keyboard
Proc1,,List9,,,,,,,,975,3,950,950,Keyboard,98,3,0,,25,,,,,,,,,,,,,,,,,,,,,,,,,,,,,,3,1,3,,,,,,,,,,DelayDiscountingTitrated,02-05-2025,16:14:07,2/5/2025 9:14:07 PM,1118,1,11,DelayDiscountingTitrated-1118-1,2123007115,1,75.005,"<?xml version=""1.0""?>\n<Clock xmlns:dt=""urn:schemas-microsoft-com:datatypes""><Description dt:dt=""string"">E-Prime Primary Realtime Clock</Description><StartTime><Timestamp dt:dt=""int"">0</Timestamp><DateUtc dt:dt=""string"">2025-02-05T21:14:06Z</DateUtc></StartTime><FrequencyChanges><FrequencyChange><Frequency dt:dt=""r8"">10000000</Frequency><Timestamp dt:dt=""r8"">19836278556474</Timestamp><Current dt:dt=""r8"">0</Current><DateUtc dt:dt=""string"">2025-02-05T21:14:06Z</DateUtc></FrequencyChange></FrequencyChanges></Clock>\n",3.0.3.43,3.0.3.60,3.0.3.60,Full,1.0.0.8,Keyboard,Keyboard
Proc1,,List9,,,,,,,,987,3,975,975,Keyboard,574,3,0,,12,,,,,,,,,,,,,,,,,,,,,,,,,,,,,,4,1,4,,,,,,,,,,DelayDiscountingTitrated,02-05-2025,16:14:07,2/5/2025 9:14:07 PM,1118,1,11,DelayDiscountingTitrated-1118-1,2123007115,1,75.005,"<?xml version=""1.0""?>\n<Clock xmlns:dt=""urn:schemas-microsoft-com:datatypes""><Description dt:dt=""string"">E-Prime Primary Realtime Clock</Description><StartTime><Timestamp dt:dt=""int"">0</Timestamp><DateUtc dt:dt=""string"">2025-02-05T21:14:06Z</DateUtc></StartTime><FrequencyChanges><FrequencyChange><Frequency dt:dt=""r8"">10000000</Frequency><Timestamp dt:dt=""r8"">19836278556474</Timestamp><Current dt:dt=""r8"">0</Current><DateUtc dt:dt=""string"">2025-02-05T21:14:06Z</DateUtc></FrequencyChange></FrequencyChanges></Clock>\n",3.0.3.43,3.0.3.60,3.0.3.60,Full,1.0.0.8,Keyboard,Keyboard
Proc1,,List9,,,,,,,,993,3,987,987,Keyboard,378,3,0,,6,,,,,,,,,,,,,,,,,,,,,,,,,,,,,,5,1,5,,,,,,,,,,DelayDiscountingTitrated,02-05-2025,16:14:07,2/5/2025 9:14:07 PM,1118,1,11,DelayDiscountingTitrated-1118-1,2123007115,1,75.005,"<?xml version=""1.0""?>\n<Clock xmlns:dt=""urn:schemas-microsoft-com:datatypes""><Description dt:dt=""string"">E-Prime Primary Realtime Clock</Description><StartTime><Timestamp dt:dt=""int"">0</Timestamp><DateUtc dt:dt=""string"">2025-02-05T21:14:06Z</DateUtc></StartTime><FrequencyChanges><FrequencyChange><Frequency dt:dt=""r8"">10000000</Frequency><Timestamp dt:dt=""r8"">19836278556474</Timestamp><Current dt:dt=""r8"">0</Current><DateUtc dt:dt=""string"">2025-02-05T21:14:06Z</DateUtc></FrequencyChange></FrequencyChanges></Clock>\n",3.0.3.43,3.0.3.60,3.0.3.60,Full,1.0.0.8,Keyboard,Keyboard
Proc1,,List9,,,,,,,,997,3,993,993,Keyboard,305,3,0,,4,,,,,,,,,,,,,,,,,,,,,,,,,,,,,,6,1,6,,,,,,,,,,DelayDiscountingTitrated,02-05-2025,16:14:07,2/5/2025 9:14:07 PM,1118,1,11,DelayDiscountingTitrated-1118-1,2123007115,1,75.005,"<?xml version=""1.0""?>\n<Clock xmlns:dt=""urn:schemas-microsoft-com:datatypes""><Description dt:dt=""string"">E-Prime Primary Realtime Clock</Description><StartTime><Timestamp dt:dt=""int"">0</Timestamp><DateUtc dt:dt=""string"">2025-02-05T21:14:06Z</DateUtc></StartTime><FrequencyChanges><FrequencyChange><Frequency dt:dt=""r8"">10000000</Frequency><Timestamp dt:dt=""r8"">19836278556474</Timestamp><Current dt:dt=""r8"">0</Current><DateUtc dt:dt=""string"">2025-02-05T21:14:06Z</DateUtc></FrequencyChange></FrequencyChanges></Clock>\n",3.0.3.43,3.0.3.60,3.0.3.60,Full,1.0.0.8,Keyboard,Keyboard
Proc1,,List9,,,,,,,,999,3,997,997,Keyboard,781,3,0,,2,,,,,,,,,,,,,,,,,,,,,,,,,,,,,,7,1,7,,,,,,,,,,DelayDiscountingTitrated,02-05-2025,16:14:07,2/5/2025 9:14:07 PM,1118,1,11,DelayDiscountingTitrated-1118-1,2123007115,1,75.005,"<?xml version=""1.0""?>\n<Clock xmlns:dt=""urn:schemas-microsoft-com:datatypes""><Description dt:dt=""string"">E-Prime Primary Realtime Clock</Description><StartTime><Timestamp dt:dt=""int"">0</Timestamp><DateUtc dt:dt=""string"">2025-02-05T21:14:06Z</DateUtc></StartTime><FrequencyChanges><FrequencyChange><Frequency dt:dt=""r8"">10000000</Frequency><Timestamp dt:dt=""r8"">19836278556474</Timestamp><Current dt:dt=""r8"">0</Current><DateUtc dt:dt=""string"">2025-02-05T21:14:06Z</DateUtc></FrequencyChange></FrequencyChanges></Clock>\n",3.0.3.43,3.0.3.60,3.0.3.60,Full,1.0.0.8,Keyboard,Keyboard
Proc1,,List9,,,,,,,,998,1,999,999,Keyboard,962,1,0,,1,,,,,,,,,,,,,,,,,,,,,,,,,,,,,,8,1,8,,,,,,,,,,DelayDiscountingTitrated,02-05-2025,16:14:07,2/5/2025 9:14:07 PM,1118,1,11,DelayDiscountingTitrated-1118-1,2123007115,1,75.005,"<?xml version=""1.0""?>\n<Clock xmlns:dt=""urn:schemas-microsoft-com:datatypes""><Description dt:dt=""string"">E-Prime Primary Realtime Clock</Description><StartTime><Timestamp dt:dt=""int"">0</Timestamp><DateUtc dt:dt=""string"">2025-02-05T21:14:06Z</DateUtc></StartTime><FrequencyChanges><FrequencyChange><Frequency dt:dt=""r8"">10000000</Frequency><Timestamp dt:dt=""r8"">19836278556474</Timestamp><Current dt:dt=""r8"">0</Current><DateUtc dt:dt=""string"">2025-02-05T21:14:06Z</DateUtc></FrequencyChange></FrequencyChanges></Clock>\n",3.0.3.43,3.0.3.60,3.0.3.60,Full,1.0.0.8,Keyboard,Keyboard
Proc1,,List9,,,,,,,,998,3,999,998,Keyboard,742,3,0,,,,,,,,,,,,,,,,,,,,,,,,,,,,,,,,9,1,9,,,,,,,,,,DelayDiscountingTitrated,02-05-2025,16:14:07,2/5/2025 9:14:07 PM,1118,1,11,DelayDiscountingTitrated-1118-1,2123007115,1,75.005,"<?xml version=""1.0""?>\n<Clock xmlns:dt=""urn:schemas-microsoft-com:datatypes""><Description dt:dt=""string"">E-Prime Primary Realtime Clock</Description><StartTime><Timestamp dt:dt=""int"">0</Timestamp><DateUtc dt:dt=""string"">2025-02-05T21:14:06Z</DateUtc></StartTime><FrequencyChanges><FrequencyChange><Frequency dt:dt=""r8"">10000000</Frequency><Timestamp dt:dt=""r8"">19836278556474</Timestamp><Current dt:dt=""r8"">0</Current><DateUtc dt:dt=""string"">2025-02-05T21:14:06Z</DateUtc></FrequencyChange></FrequencyChanges></Clock>\n",3.0.3.43,3.0.3.60,3.0.3.60,Full,1.0.0.8,Keyboard,Keyboard
discount1,,List4,,,,,,,,,,,,,,,,,,800,1 month,30,,,,,,,,,,,,,,,,,,,,,,,,,,,,,,3,1,1,,,,,,,DelayDiscountingTitrated,02-05-2025,16:14:07,2/5/2025 9:14:07 PM,1118,1,11,DelayDiscountingTitrated-1118-1,2123007115,1,75.005,"<?xml version=""1.0""?>\n<Clock xmlns:dt=""urn:schemas-microsoft-com:datatypes""><Description dt:dt=""string"">E-Prime Primary Realtime Clock</Description><StartTime><Timestamp dt:dt=""int"">0</Timestamp><DateUtc dt:dt=""string"">2025-02-05T21:14:06Z</DateUtc></StartTime><FrequencyChanges><FrequencyChange><Frequency dt:dt=""r8"">10000000</Frequency><Timestamp dt:dt=""r8"">19836278556474</Timestamp><Current dt:dt=""r8"">0</Current><DateUtc dt:dt=""string"">2025-02-05T21:14:06Z</DateUtc></FrequencyChange></FrequencyChanges></Clock>\n",3.0.3.43,3.0.3.60,3.0.3.60,Full,1.0.0.8,Keyboard,Keyboard
onemthproc,,List1,,,,,,,,,,,,,,,,,,,,,,,,2,1,5,5,Keyboard,,,,,,,,,,,,,,,,,,,,,,,,,,,,,,,DelayDiscountingTitrated,02-05-2025,16:14:07,2/5/2025 9:14:07 PM,1118,1,11,DelayDiscountingTitrated-1118-1,2123007115,1,75.005,"<?xml version=""1.0""?>\n<Clock xmlns:dt=""urn:schemas-microsoft-com:datatypes""><Description dt:dt=""string"">E-Prime Primary Realtime Clock</Description><StartTime><Timestamp dt:dt=""int"">0</Timestamp><DateUtc dt:dt=""string"">2025-02-05T21:14:06Z</DateUtc></StartTime><FrequencyChanges><FrequencyChange><Frequency dt:dt=""r8"">10000000</Frequency><Timestamp dt:dt=""r8"">19836278556474</Timestamp><Current dt:dt=""r8"">0</Current><DateUtc dt:dt=""string"">2025-02-05T21:14:06Z</DateUtc></FrequencyChange></FrequencyChanges></Clock>\n",3.0.3.43,3.0.3.60,3.0.3.60,Full,1.0.0.8,Keyboard,Keyboard
Init2,,List10,,,Keyboard,2427,3,0,,750,3,500,,,,,,,,,,,,,,,,,,,,,,,,,,,,,,,,,,,,,,,,,,,1,1,1,,,,DelayDiscountingTitrated,02-05-2025,16:14:07,2/5/2025 9:14:07 PM,1118,1,11,DelayDiscountingTitrated-1118-1,2123007115,1,75.005,"<?xml version=""1.0""?>\n<Clock xmlns:dt=""urn:schemas-microsoft-com:datatypes""><Description dt:dt=""string"">E-Prime Primary Realtime Clock</Description><StartTime><Timestamp dt:dt=""int"">0</Timestamp><DateUtc dt:dt=""string"">2025-02-05T21:14:06Z</DateUtc></StartTime><FrequencyChanges><FrequencyChange><Frequency dt:dt=""r8"">10000000</Frequency><Timestamp dt:dt=""r8"">19836278556474</Timestamp><Current dt:dt=""r8"">0</Current><DateUtc dt:dt=""string"">2025-02-05T21:14:06Z</DateUtc></FrequencyChange></FrequencyChanges></Clock>\n",3.0.3.43,3.0.3.60,3.0.3.60,Full,1.0.0.8,Keyboard,Keyboard
Proc2,,List10,,,,,,,,875,3,750,750,Keyboard,882,3,0,,125,,,,,,,,,,,,,,,,,,,,,,,,,,,,,,,,,,,,2,1,2,,,,DelayDiscountingTitrated,02-05-2025,16:14:07,2/5/2025 9:14:07 PM,1118,1,11,DelayDiscountingTitrated-1118-1,2123007115,1,75.005,"<?xml version=""1.0""?>\n<Clock xmlns:dt=""urn:schemas-microsoft-com:datatypes""><Description dt:dt=""string"">E-Prime Primary Realtime Clock</Description><StartTime><Timestamp dt:dt=""int"">0</Timestamp><DateUtc dt:dt=""string"">2025-02-05T21:14:06Z</DateUtc></StartTime><FrequencyChanges><FrequencyChange><Frequency dt:dt=""r8"">10000000</Frequency><Timestamp dt:dt=""r8"">19836278556474</Timestamp><Current dt:dt=""r8"">0</Current><DateUtc dt:dt=""string"">2025-02-05T21:14:06Z</DateUtc></FrequencyChange></FrequencyChanges></Clock>\n",3.0.3.43,3.0.3.60,3.0.3.60,Full,1.0.0.8,Keyboard,Keyboard
Proc2,,List10,,,,,,,,937,3,875,875,Keyboard,418,3,0,,62,,,,,,,,,,,,,,,,,,,,,,,,,,,,,,,,,,,,3,1,3,,,,DelayDiscountingTitrated,02-05-2025,16:14:07,2/5/2025 9:14:07 PM,1118,1,11,DelayDiscountingTitrated-1118-1,2123007115,1,75.005,"<?xml version=""1.0""?>\n<Clock xmlns:dt=""urn:schemas-microsoft-com:datatypes""><Description dt:dt=""string"">E-Prime Primary Realtime Clock</Description><StartTime><Timestamp dt:dt=""int"">0</Timestamp><DateUtc dt:dt=""string"">2025-02-05T21:14:06Z</DateUtc></StartTime><FrequencyChanges><FrequencyChange><Frequency dt:dt=""r8"">10000000</Frequency><Timestamp dt:dt=""r8"">19836278556474</Timestamp><Current dt:dt=""r8"">0</Current><DateUtc dt:dt=""string"">2025-02-05T21:14:06Z</DateUtc></FrequencyChange></FrequencyChanges></Clock>\n",3.0.3.43,3.0.3.60,3.0.3.60,Full,1.0.0.8,Keyboard,Keyboard
Proc2,,List10,,,,,,,,969,3,937,937,Keyboard,575,3,0,,32,,,,,,,,,,,,,,,,,,,,,,,,,,,,,,,,,,,,4,1,4,,,,DelayDiscountingTitrated,02-05-2025,16:14:07,2/5/2025 9:14:07 PM,1118,1,11,DelayDiscountingTitrated-1118-1,2123007115,1,75.005,"<?xml version=""1.0""?>\n<Clock xmlns:dt=""urn:schemas-microsoft-com:datatypes""><Description dt:dt=""string"">E-Prime Primary Realtime Clock</Description><StartTime><Timestamp dt:dt=""int"">0</Timestamp><DateUtc dt:dt=""string"">2025-02-05T21:14:06Z</DateUtc></StartTime><FrequencyChanges><FrequencyChange><Frequency dt:dt=""r8"">10000000</Frequency><Timestamp dt:dt=""r8"">19836278556474</Timestamp><Current dt:dt=""r8"">0</Current><DateUtc dt:dt=""string"">2025-02-05T21:14:06Z</DateUtc></FrequencyChange></FrequencyChanges></Clock>\n",3.0.3.43,3.0.3.60,3.0.3.60,Full,1.0.0.8,Keyboard,Keyboard
Proc2,,List10,,,,,,,,985,3,969,969,Keyboard,383,3,0,,16,,,,,,,,,,,,,,,,,,,,,,,,,,,,,,,,,,,,5,1,5,,,,DelayDiscountingTitrated,02-05-2025,16:14:07,2/5/2025 9:14:07 PM,1118,1,11,DelayDiscountingTitrated-1118-1,2123007115,1,75.005,"<?xml version=""1.0""?>\n<Clock xmlns:dt=""urn:schemas-microsoft-com:datatypes""><Description dt:dt=""string"">E-Prime Primary Realtime Clock</Description><StartTime><Timestamp dt:dt=""int"">0</Timestamp><DateUtc dt:dt=""string"">2025-02-05T21:14:06Z</DateUtc></StartTime><FrequencyChanges><FrequencyChange><Frequency dt:dt=""r8"">10000000</Frequency><Timestamp dt:dt=""r8"">19836278556474</Timestamp><Current dt:dt=""r8"">0</Current><DateUtc dt:dt=""string"">2025-02-05T21:14:06Z</DateUtc></FrequencyChange></FrequencyChanges></Clock>\n",3.0.3.43,3.0.3.60,3.0.3.60,Full,1.0.0.8,Keyboard,Keyboard
Proc2,,List10,,,,,,,,993,3,985,985,Keyboard,1063,3,0,,8,,,,,,,,,,,,,,,,,,,,,,,,,,,,,,,,,,,,6,1,6,,,,DelayDiscountingTitrated,02-05-2025,16:14:07,2/5/2025 9:14:07 PM,1118,1,11,DelayDiscountingTitrated-1118-1,2123007115,1,75.005,"<?xml version=""1.0""?>\n<Clock xmlns:dt=""urn:schemas-microsoft-com:datatypes""><Description dt:dt=""string"">E-Prime Primary Realtime Clock</Description><StartTime><Timestamp dt:dt=""int"">0</Timestamp><DateUtc dt:dt=""string"">2025-02-05T21:14:06Z</DateUtc></StartTime><FrequencyChanges><FrequencyChange><Frequency dt:dt=""r8"">10000000</Frequency><Timestamp dt:dt=""r8"">19836278556474</Timestamp><Current dt:dt=""r8"">0</Current><DateUtc dt:dt=""string"">2025-02-05T21:14:06Z</DateUtc></FrequencyChange></FrequencyChanges></Clock>\n",3.0.3.43,3.0.3.60,3.0.3.60,Full,1.0.0.8,Keyboard,Keyboard
Proc2,,List10,,,,,,,,997,3,993,993,Keyboard,1303,3,0,,4,,,,,,,,,,,,,,,,,,,,,,,,,,,,,,,,,,,,7,1,7,,,,DelayDiscountingTitrated,02-05-2025,16:14:07,2/5/2025 9:14:07 PM,1118,1,11,DelayDiscountingTitrated-1118-1,2123007115,1,75.005,"<?xml version=""1.0""?>\n<Clock xmlns:dt=""urn:schemas-microsoft-com:datatypes""><Description dt:dt=""string"">E-Prime Primary Realtime Clock</Description><StartTime><Timestamp dt:dt=""int"">0</Timestamp><DateUtc dt:dt=""string"">2025-02-05T21:14:06Z</DateUtc></StartTime><FrequencyChanges><FrequencyChange><Frequency dt:dt=""r8"">10000000</Frequency><Timestamp dt:dt=""r8"">19836278556474</Timestamp><Current dt:dt=""r8"">0</Current><DateUtc dt:dt=""string"">2025-02-05T21:14:06Z</DateUtc></FrequencyChange></FrequencyChanges></Clock>\n",3.0.3.43,3.0.3.60,3.0.3.60,Full,1.0.0.8,Keyboard,Keyboard
Proc2,,List10,,,,,,,,999,3,997,997,Keyboard,1018,3,0,,2,,,,,,,,,,,,,,,,,,,,,,,,,,,,,,,,,,,,8,1,8,,,,DelayDiscountingTitrated,02-05-2025,16:14:07,2/5/2025 9:14:07 PM,1118,1,11,DelayDiscountingTitrated-1118-1,2123007115,1,75.005,"<?xml version=""1.0""?>\n<Clock xmlns:dt=""urn:schemas-microsoft-com:datatypes""><Description dt:dt=""string"">E-Prime Primary Realtime Clock</Description><StartTime><Timestamp dt:dt=""int"">0</Timestamp><DateUtc dt:dt=""string"">2025-02-05T21:14:06Z</DateUtc></StartTime><FrequencyChanges><FrequencyChange><Frequency dt:dt=""r8"">10000000</Frequency><Timestamp dt:dt=""r8"">19836278556474</Timestamp><Current dt:dt=""r8"">0</Current><DateUtc dt:dt=""string"">2025-02-05T21:14:06Z</DateUtc></FrequencyChange></FrequencyChanges></Clock>\n",3.0.3.43,3.0.3.60,3.0.3.60,Full,1.0.0.8,Keyboard,Keyboard
Proc2,,List10,,,,,,,,998,1,999,999,Keyboard,432,1,0,,1,,,,,,,,,,,,,,,,,,,,,,,,,,,,,,,,,,,,9,1,9,,,,DelayDiscountingTitrated,02-05-2025,16:14:07,2/5/2025 9:14:07 PM,1118,1,11,DelayDiscountingTitrated-1118-1,2123007115,1,75.005,"<?xml version=""1.0""?>\n<Clock xmlns:dt=""urn:schemas-microsoft-com:datatypes""><Description dt:dt=""string"">E-Prime Primary Realtime Clock</Description><StartTime><Timestamp dt:dt=""int"">0</Timestamp><DateUtc dt:dt=""string"">2025-02-05T21:14:06Z</DateUtc></StartTime><FrequencyChanges><FrequencyChange><Frequency dt:dt=""r8"">10000000</Frequency><Timestamp dt:dt=""r8"">19836278556474</Timestamp><Current dt:dt=""r8"">0</Current><DateUtc dt:dt=""string"">2025-02-05T21:14:06Z</DateUtc></FrequencyChange></FrequencyChanges></Clock>\n",3.0.3.43,3.0.3.60,3.0.3.60,Full,1.0.0.8,Keyboard,Keyboard
Proc2,,List10,,,,,,,,998,3,999,998,Keyboard,517,3,0,,,,,,,,,,,,,,,,,,,,,,,,,,,,,,,,,,,,,,10,1,10,,,,DelayDiscountingTitrated,02-05-2025,16:14:07,2/5/2025 9:14:07 PM,1118,1,11,DelayDiscountingTitrated-1118-1,2123007115,1,75.005,"<?xml version=""1.0""?>\n<Clock xmlns:dt=""urn:schemas-microsoft-com:datatypes""><Description dt:dt=""string"">E-Prime Primary Realtime Clock</Description><StartTime><Timestamp dt:dt=""int"">0</Timestamp><DateUtc dt:dt=""string"">2025-02-05T21:14:06Z</DateUtc></StartTime><FrequencyChanges><FrequencyChange><Frequency dt:dt=""r8"">10000000</Frequency><Timestamp dt:dt=""r8"">19836278556474</Timestamp><Current dt:dt=""r8"">0</Current><DateUtc dt:dt=""string"">2025-02-05T21:14:06Z</DateUtc></FrequencyChange></FrequencyChanges></Clock>\n",3.0.3.43,3.0.3.60,3.0.3.60,Full,1.0.0.8,Keyboard,Keyboard
discount2,,List5,,,,,,,,,,,,,,,,,,500,6 month,180,,,,,,,,,,,,,,,,,,,,,,,,,,,,,,,,,,,,2,1,1,DelayDiscountingTitrated,02-05-2025,16:14:07,2/5/2025 9:14:07 PM,1118,1,11,DelayDiscountingTitrated-1118-1,2123007115,1,75.005,"<?xml version=""1.0""?>\n<Clock xmlns:dt=""urn:schemas-microsoft-com:datatypes""><Description dt:dt=""string"">E-Prime Primary Realtime Clock</Description><StartTime><Timestamp dt:dt=""int"">0</Timestamp><DateUtc dt:dt=""string"">2025-02-05T21:14:06Z</DateUtc></StartTime><FrequencyChanges><FrequencyChange><Frequency dt:dt=""r8"">10000000</Frequency><Timestamp dt:dt=""r8"">19836278556474</Timestamp><Current dt:dt=""r8"">0</Current><DateUtc dt:dt=""string"">2025-02-05T21:14:06Z</DateUtc></FrequencyChange></FrequencyChanges></Clock>\n",3.0.3.43,3.0.3.60,3.0.3.60,Full,1.0.0.8,Keyboard,Keyboard
sixmthproc,,List1,,,,,,,,,,,,,,,,,,,,,,,,3,1,6,6,Keyboard,,,,,,,,,,,,,,,,,,,,,,,,,,,,,,,DelayDiscountingTitrated,02-05-2025,16:14:07,2/5/2025 9:14:07 PM,1118,1,11,DelayDiscountingTitrated-1118-1,2123007115,1,75.005,"<?xml version=""1.0""?>\n<Clock xmlns:dt=""urn:schemas-microsoft-com:datatypes""><Description dt:dt=""string"">E-Prime Primary Realtime Clock</Description><StartTime><Timestamp dt:dt=""int"">0</Timestamp><DateUtc dt:dt=""string"">2025-02-05T21:14:06Z</DateUtc></StartTime><FrequencyChanges><FrequencyChange><Frequency dt:dt=""r8"">10000000</Frequency><Timestamp dt:dt=""r8"">19836278556474</Timestamp><Current dt:dt=""r8"">0</Current><DateUtc dt:dt=""string"">2025-02-05T21:14:06Z</DateUtc></FrequencyChange></FrequencyChanges></Clock>\n",3.0.3.43,3.0.3.60,3.0.3.60,Full,1.0.0.8,Keyboard,Keyboard
,,,,,,,,,,,,,,,,,,,,,,,,,,,,,,,,,,,,,,,,,,,,,,,,,,,,,,,,,,,,,DelayDiscountingTitrated,02-05-2025,16:14:07,2/5/2025 9:14:07 PM,1118,1,11,DelayDiscountingTitrated-1118-1,2123007115,1,75.005,"<?xml version=""1.0""?>\n<Clock xmlns:dt=""urn:schemas-microsoft-com:datatypes""><Description dt:dt=""string"">E-Prime Primary Realtime Clock</Description><StartTime><Timestamp dt:dt=""int"">0</Timestamp><DateUtc dt:dt=""string"">2025-02-05T21:14:06Z</DateUtc></StartTime><FrequencyChanges><FrequencyChange><Frequency dt:dt=""r8"">10000000</Frequency><Timestamp dt:dt=""r8"">19836278556474</Timestamp><Current dt:dt=""r8"">0</Current><DateUtc dt:dt=""string"">2025-02-05T21:14:06Z</DateUtc></FrequencyChange></FrequencyChanges></Clock>\n",3.0.3.43,3.0.3.60,3.0.3.60,Full,1.0.0.8,Keyboard,Keyboard
