Procedure,List9,Running,List9.Cycle,List9.Sample,Slide2.RT,Slide2.RESP,Slide4.RT,Slide4.RESP,immed3,respprev,prevalue,imstring,Slide1.RT,Slide1.RESP,Slide5.RT,Slide5.RESP,immed5,immed,delaypd,timedays,List4,List4.Cycle,List4.Sample,List1,List1.Cycle,List1.Sample,roundnumber,List11,List11.Cycle,List11.Sample,List6,List6.Cycle,List6.Sample,List12,List12.Cycle,List12.Sample,List7,List7.Cycle,List7.Sample,List2,List2.Cycle,List2.Sample,List3,List3.Cycle,List3.Sample,List10,List10.Cycle,List10.Sample,List5,List5.Cycle,List5.Sample,List13,List13.Cycle,List13.Sample,List8,List8.Cycle,List8.Sample,Experiment,SessionDate,SessionTime,SessionStartDateTimeUtc,Subject,Session,Age,DataFile.Basename,RandomSeed,Group,Display.RefreshRate,Clock.Information,StudioVersion,RuntimeVersion,RuntimeVersionExpected,RuntimeCapabilities,ExperimentVersion
Init1,1,List9,1,1,4414,3,0,,600,3,200,,,,,,,,,,,,,,,,,,,,,,,,,,,,,,,,,,,,,,,,,,,,,,,DelayDiscountingTitrated,07-06-2023,12:46:52,7/6/2023 4:46:52 PM,3003,1,18,DelayDiscountingTitrated-3003-1,-326800665,1,60.017,"<?xml version=""1.0""?>\n<Clock xmlns:dt=""urn:schemas-microsoft-com:datatypes""><Description dt:dt=""string"">E-Prime Primary Realtime Clock</Description><StartTime><Timestamp dt:dt=""int"">0</Timestamp><DateUtc dt:dt=""string"">2023-07-06T16:46:52Z</DateUtc></StartTime><FrequencyChanges><FrequencyChange><Frequency dt:dt=""r8"">10000000</Frequency><Timestamp dt:dt=""r8"">23317048660508</Timestamp><Current dt:dt=""r8"">0</Current><DateUtc dt:dt=""string"">2023-07-06T16:46:52Z</DateUtc></FrequencyChange></FrequencyChanges></Clock>\n",2.0.10.252,2.0.10.356,2.0.10.356,Professional,1.0.0.6
Proc1,2,List9,1,2,,,,,800,3,600,600,4093,3,0,,200,,,,,,,,,,,,,,,,,,,,,,,,,,,,,,,,,,,,,,,,,DelayDiscountingTitrated,07-06-2023,12:46:52,7/6/2023 4:46:52 PM,3003,1,18,DelayDiscountingTitrated-3003-1,-326800665,1,60.017,"<?xml version=""1.0""?>\n<Clock xmlns:dt=""urn:schemas-microsoft-com:datatypes""><Description dt:dt=""string"">E-Prime Primary Realtime Clock</Description><StartTime><Timestamp dt:dt=""int"">0</Timestamp><DateUtc dt:dt=""string"">2023-07-06T16:46:52Z</DateUtc></StartTime><FrequencyChanges><FrequencyChange><Frequency dt:dt=""r8"">10000000</Frequency><Timestamp dt:dt=""r8"">23317048660508</Timestamp><Current dt:dt=""r8"">0</Current><DateUtc dt:dt=""string"">2023-07-06T16:46:52Z</DateUtc></FrequencyChange></FrequencyChanges></Clock>\n",2.0.10.252,2.0.10.356,2.0.10.356,Professional,1.0.0.6
Proc1,3,List9,1,3,,,,,900,3,800,800,2657,3,0,,100,,,,,,,,,,,,,,,,,,,,,,,,,,,,,,,,,,,,,,,,,DelayDiscountingTitrated,07-06-2023,12:46:52,7/6/2023 4:46:52 PM,3003,1,18,DelayDiscountingTitrated-3003-1,-326800665,1,60.017,"<?xml version=""1.0""?>\n<Clock xmlns:dt=""urn:schemas-microsoft-com:datatypes""><Description dt:dt=""string"">E-Prime Primary Realtime Clock</Description><StartTime><Timestamp dt:dt=""int"">0</Timestamp><DateUtc dt:dt=""string"">2023-07-06T16:46:52Z</DateUtc></StartTime><FrequencyChanges><FrequencyChange><Frequency dt:dt=""r8"">10000000</Frequency><Timestamp dt:dt=""r8"">23317048660508</Timestamp><Current dt:dt=""r8"">0</Current><DateUtc dt:dt=""string"">2023-07-06T16:46:52Z</DateUtc></FrequencyChange></FrequencyChanges></Clock>\n",2.0.10.252,2.0.10.356,2.0.10.356,Professional,1.0.0.6
Proc1,4,List9,1,4,,,,,950,3,900,900,1950,3,0,,50,,,,,,,,,,,,,,,,,,,,,,,,,,,,,,,,,,,,,,,,,DelayDiscountingTitrated,07-06-2023,12:46:52,7/6/2023 4:46:52 PM,3003,1,18,DelayDiscountingTitrated-3003-1,-326800665,1,60.017,"<?xml version=""1.0""?>\n<Clock xmlns:dt=""urn:schemas-microsoft-com:datatypes""><Description dt:dt=""string"">E-Prime Primary Realtime Clock</Description><StartTime><Timestamp dt:dt=""int"">0</Timestamp><DateUtc dt:dt=""string"">2023-07-06T16:46:52Z</DateUtc></StartTime><FrequencyChanges><FrequencyChange><Frequency dt:dt=""r8"">10000000</Frequency><Timestamp dt:dt=""r8"">23317048660508</Timestamp><Current dt:dt=""r8"">0</Current><DateUtc dt:dt=""string"">2023-07-06T16:46:52Z</DateUtc></FrequencyChange></FrequencyChanges></Clock>\n",2.0.10.252,2.0.10.356,2.0.10.356,Professional,1.0.0.6
Proc1,5,List9,1,5,,,,,975,3,950,950,3127,3,0,,25,,,,,,,,,,,,,,,,,,,,,,,,,,,,,,,,,,,,,,,,,DelayDiscountingTitrated,07-06-2023,12:46:52,7/6/2023 4:46:52 PM,3003,1,18,DelayDiscountingTitrated-3003-1,-326800665,1,60.017,"<?xml version=""1.0""?>\n<Clock xmlns:dt=""urn:schemas-microsoft-com:datatypes""><Description dt:dt=""string"">E-Prime Primary Realtime Clock</Description><StartTime><Timestamp dt:dt=""int"">0</Timestamp><DateUtc dt:dt=""string"">2023-07-06T16:46:52Z</DateUtc></StartTime><FrequencyChanges><FrequencyChange><Frequency dt:dt=""r8"">10000000</Frequency><Timestamp dt:dt=""r8"">23317048660508</Timestamp><Current dt:dt=""r8"">0</Current><DateUtc dt:dt=""string"">2023-07-06T16:46:52Z</DateUtc></FrequencyChange></FrequencyChanges></Clock>\n",2.0.10.252,2.0.10.356,2.0.10.356,Professional,1.0.0.6
Proc1,6,List9,1,6,,,,,987,3,975,975,3273,3,0,,12,,,,,,,,,,,,,,,,,,,,,,,,,,,,,,,,,,,,,,,,,DelayDiscountingTitrated,07-06-2023,12:46:52,7/6/2023 4:46:52 PM,3003,1,18,DelayDiscountingTitrated-3003-1,-326800665,1,60.017,"<?xml version=""1.0""?>\n<Clock xmlns:dt=""urn:schemas-microsoft-com:datatypes""><Description dt:dt=""string"">E-Prime Primary Realtime Clock</Description><StartTime><Timestamp dt:dt=""int"">0</Timestamp><DateUtc dt:dt=""string"">2023-07-06T16:46:52Z</DateUtc></StartTime><FrequencyChanges><FrequencyChange><Frequency dt:dt=""r8"">10000000</Frequency><Timestamp dt:dt=""r8"">23317048660508</Timestamp><Current dt:dt=""r8"">0</Current><DateUtc dt:dt=""string"">2023-07-06T16:46:52Z</DateUtc></FrequencyChange></FrequencyChanges></Clock>\n",2.0.10.252,2.0.10.356,2.0.10.356,Professional,1.0.0.6
Proc1,7,List9,1,7,,,,,993,3,987,987,1462,3,0,,6,,,,,,,,,,,,,,,,,,,,,,,,,,,,,,,,,,,,,,,,,DelayDiscountingTitrated,07-06-2023,12:46:52,7/6/2023 4:46:52 PM,3003,1,18,DelayDiscountingTitrated-3003-1,-326800665,1,60.017,"<?xml version=""1.0""?>\n<Clock xmlns:dt=""urn:schemas-microsoft-com:datatypes""><Description dt:dt=""string"">E-Prime Primary Realtime Clock</Description><StartTime><Timestamp dt:dt=""int"">0</Timestamp><DateUtc dt:dt=""string"">2023-07-06T16:46:52Z</DateUtc></StartTime><FrequencyChanges><FrequencyChange><Frequency dt:dt=""r8"">10000000</Frequency><Timestamp dt:dt=""r8"">23317048660508</Timestamp><Current dt:dt=""r8"">0</Current><DateUtc dt:dt=""string"">2023-07-06T16:46:52Z</DateUtc></FrequencyChange></FrequencyChanges></Clock>\n",2.0.10.252,2.0.10.356,2.0.10.356,Professional,1.0.0.6
Proc1,8,List9,1,8,,,,,997,3,993,993,1458,3,0,,4,,,,,,,,,,,,,,,,,,,,,,,,,,,,,,,,,,,,,,,,,DelayDiscountingTitrated,07-06-2023,12:46:52,7/6/2023 4:46:52 PM,3003,1,18,DelayDiscountingTitrated-3003-1,-326800665,1,60.017,"<?xml version=""1.0""?>\n<Clock xmlns:dt=""urn:schemas-microsoft-com:datatypes""><Description dt:dt=""string"">E-Prime Primary Realtime Clock</Description><StartTime><Timestamp dt:dt=""int"">0</Timestamp><DateUtc dt:dt=""string"">2023-07-06T16:46:52Z</DateUtc></StartTime><FrequencyChanges><FrequencyChange><Frequency dt:dt=""r8"">10000000</Frequency><Timestamp dt:dt=""r8"">23317048660508</Timestamp><Current dt:dt=""r8"">0</Current><DateUtc dt:dt=""string"">2023-07-06T16:46:52Z</DateUtc></FrequencyChange></FrequencyChanges></Clock>\n",2.0.10.252,2.0.10.356,2.0.10.356,Professional,1.0.0.6
Proc1,9,List9,1,9,,,,,999,3,997,997,4486,3,0,,2,,,,,,,,,,,,,,,,,,,,,,,,,,,,,,,,,,,,,,,,,DelayDiscountingTitrated,07-06-2023,12:46:52,7/6/2023 4:46:52 PM,3003,1,18,DelayDiscountingTitrated-3003-1,-326800665,1,60.017,"<?xml version=""1.0""?>\n<Clock xmlns:dt=""urn:schemas-microsoft-com:datatypes""><Description dt:dt=""string"">E-Prime Primary Realtime Clock</Description><StartTime><Timestamp dt:dt=""int"">0</Timestamp><DateUtc dt:dt=""string"">2023-07-06T16:46:52Z</DateUtc></StartTime><FrequencyChanges><FrequencyChange><Frequency dt:dt=""r8"">10000000</Frequency><Timestamp dt:dt=""r8"">23317048660508</Timestamp><Current dt:dt=""r8"">0</Current><DateUtc dt:dt=""string"">2023-07-06T16:46:52Z</DateUtc></FrequencyChange></FrequencyChanges></Clock>\n",2.0.10.252,2.0.10.356,2.0.10.356,Professional,1.0.0.6
Proc1,10,List9,1,10,,,,,998,1,999,999,4123,1,0,,1,,,,,,,,,,,,,,,,,,,,,,,,,,,,,,,,,,,,,,,,,DelayDiscountingTitrated,07-06-2023,12:46:52,7/6/2023 4:46:52 PM,3003,1,18,DelayDiscountingTitrated-3003-1,-326800665,1,60.017,"<?xml version=""1.0""?>\n<Clock xmlns:dt=""urn:schemas-microsoft-com:datatypes""><Description dt:dt=""string"">E-Prime Primary Realtime Clock</Description><StartTime><Timestamp dt:dt=""int"">0</Timestamp><DateUtc dt:dt=""string"">2023-07-06T16:46:52Z</DateUtc></StartTime><FrequencyChanges><FrequencyChange><Frequency dt:dt=""r8"">10000000</Frequency><Timestamp dt:dt=""r8"">23317048660508</Timestamp><Current dt:dt=""r8"">0</Current><DateUtc dt:dt=""string"">2023-07-06T16:46:52Z</DateUtc></FrequencyChange></FrequencyChanges></Clock>\n",2.0.10.252,2.0.10.356,2.0.10.356,Professional,1.0.0.6
Proc1,11,List9,1,11,,,,,998,1,999,998,5190,1,0,,,,,,,,,,,,,,,,,,,,,,,,,,,,,,,,,,,,,,,,,,,DelayDiscountingTitrated,07-06-2023,12:46:52,7/6/2023 4:46:52 PM,3003,1,18,DelayDiscountingTitrated-3003-1,-326800665,1,60.017,"<?xml version=""1.0""?>\n<Clock xmlns:dt=""urn:schemas-microsoft-com:datatypes""><Description dt:dt=""string"">E-Prime Primary Realtime Clock</Description><StartTime><Timestamp dt:dt=""int"">0</Timestamp><DateUtc dt:dt=""string"">2023-07-06T16:46:52Z</DateUtc></StartTime><FrequencyChanges><FrequencyChange><Frequency dt:dt=""r8"">10000000</Frequency><Timestamp dt:dt=""r8"">23317048660508</Timestamp><Current dt:dt=""r8"">0</Current><DateUtc dt:dt=""string"">2023-07-06T16:46:52Z</DateUtc></FrequencyChange></FrequencyChanges></Clock>\n",2.0.10.252,2.0.10.356,2.0.10.356,Professional,1.0.0.6
discount1,,List4,,,,,,,,,,,,,,,,200,1 month,30,1,1,1,,,,,,,,,,,,,,,,,,,,,,,,,,,,,,,,,,,DelayDiscountingTitrated,07-06-2023,12:46:52,7/6/2023 4:46:52 PM,3003,1,18,DelayDiscountingTitrated-3003-1,-326800665,1,60.017,"<?xml version=""1.0""?>\n<Clock xmlns:dt=""urn:schemas-microsoft-com:datatypes""><Description dt:dt=""string"">E-Prime Primary Realtime Clock</Description><StartTime><Timestamp dt:dt=""int"">0</Timestamp><DateUtc dt:dt=""string"">2023-07-06T16:46:52Z</DateUtc></StartTime><FrequencyChanges><FrequencyChange><Frequency dt:dt=""r8"">10000000</Frequency><Timestamp dt:dt=""r8"">23317048660508</Timestamp><Current dt:dt=""r8"">0</Current><DateUtc dt:dt=""string"">2023-07-06T16:46:52Z</DateUtc></FrequencyChange></FrequencyChanges></Clock>\n",2.0.10.252,2.0.10.356,2.0.10.356,Professional,1.0.0.6
onemthproc,,List1,,,,,,,,,,,,,,,,,,,,,,2,1,1,1,,,,,,,,,,,,,,,,,,,,,,,,,,,,,,,DelayDiscountingTitrated,07-06-2023,12:46:52,7/6/2023 4:46:52 PM,3003,1,18,DelayDiscountingTitrated-3003-1,-326800665,1,60.017,"<?xml version=""1.0""?>\n<Clock xmlns:dt=""urn:schemas-microsoft-com:datatypes""><Description dt:dt=""string"">E-Prime Primary Realtime Clock</Description><StartTime><Timestamp dt:dt=""int"">0</Timestamp><DateUtc dt:dt=""string"">2023-07-06T16:46:52Z</DateUtc></StartTime><FrequencyChanges><FrequencyChange><Frequency dt:dt=""r8"">10000000</Frequency><Timestamp dt:dt=""r8"">23317048660508</Timestamp><Current dt:dt=""r8"">0</Current><DateUtc dt:dt=""string"">2023-07-06T16:46:52Z</DateUtc></FrequencyChange></FrequencyChanges></Clock>\n",2.0.10.252,2.0.10.356,2.0.10.356,Professional,1.0.0.6
Init3,,List11,,,3608,1,0,,400,1,800,,,,,,,,,,,,,,,,,1,1,1,,,,,,,,,,,,,,,,,,,,,,,,,,,,DelayDiscountingTitrated,07-06-2023,12:46:52,7/6/2023 4:46:52 PM,3003,1,18,DelayDiscountingTitrated-3003-1,-326800665,1,60.017,"<?xml version=""1.0""?>\n<Clock xmlns:dt=""urn:schemas-microsoft-com:datatypes""><Description dt:dt=""string"">E-Prime Primary Realtime Clock</Description><StartTime><Timestamp dt:dt=""int"">0</Timestamp><DateUtc dt:dt=""string"">2023-07-06T16:46:52Z</DateUtc></StartTime><FrequencyChanges><FrequencyChange><Frequency dt:dt=""r8"">10000000</Frequency><Timestamp dt:dt=""r8"">23317048660508</Timestamp><Current dt:dt=""r8"">0</Current><DateUtc dt:dt=""string"">2023-07-06T16:46:52Z</DateUtc></FrequencyChange></FrequencyChanges></Clock>\n",2.0.10.252,2.0.10.356,2.0.10.356,Professional,1.0.0.6
Proc3,,List11,,,,,,,600,3,400,400,3945,3,0,,200,,,,,,,,,,,2,1,2,,,,,,,,,,,,,,,,,,,,,,,,,,,,DelayDiscountingTitrated,07-06-2023,12:46:52,7/6/2023 4:46:52 PM,3003,1,18,DelayDiscountingTitrated-3003-1,-326800665,1,60.017,"<?xml version=""1.0""?>\n<Clock xmlns:dt=""urn:schemas-microsoft-com:datatypes""><Description dt:dt=""string"">E-Prime Primary Realtime Clock</Description><StartTime><Timestamp dt:dt=""int"">0</Timestamp><DateUtc dt:dt=""string"">2023-07-06T16:46:52Z</DateUtc></StartTime><FrequencyChanges><FrequencyChange><Frequency dt:dt=""r8"">10000000</Frequency><Timestamp dt:dt=""r8"">23317048660508</Timestamp><Current dt:dt=""r8"">0</Current><DateUtc dt:dt=""string"">2023-07-06T16:46:52Z</DateUtc></FrequencyChange></FrequencyChanges></Clock>\n",2.0.10.252,2.0.10.356,2.0.10.356,Professional,1.0.0.6
Proc3,,List11,,,,,,,500,1,600,600,2633,1,0,,100,,,,,,,,,,,3,1,3,,,,,,,,,,,,,,,,,,,,,,,,,,,,DelayDiscountingTitrated,07-06-2023,12:46:52,7/6/2023 4:46:52 PM,3003,1,18,DelayDiscountingTitrated-3003-1,-326800665,1,60.017,"<?xml version=""1.0""?>\n<Clock xmlns:dt=""urn:schemas-microsoft-com:datatypes""><Description dt:dt=""string"">E-Prime Primary Realtime Clock</Description><StartTime><Timestamp dt:dt=""int"">0</Timestamp><DateUtc dt:dt=""string"">2023-07-06T16:46:52Z</DateUtc></StartTime><FrequencyChanges><FrequencyChange><Frequency dt:dt=""r8"">10000000</Frequency><Timestamp dt:dt=""r8"">23317048660508</Timestamp><Current dt:dt=""r8"">0</Current><DateUtc dt:dt=""string"">2023-07-06T16:46:52Z</DateUtc></FrequencyChange></FrequencyChanges></Clock>\n",2.0.10.252,2.0.10.356,2.0.10.356,Professional,1.0.0.6
Proc3,,List11,,,,,,,450,1,500,500,3759,1,0,,50,,,,,,,,,,,4,1,4,,,,,,,,,,,,,,,,,,,,,,,,,,,,DelayDiscountingTitrated,07-06-2023,12:46:52,7/6/2023 4:46:52 PM,3003,1,18,DelayDiscountingTitrated-3003-1,-326800665,1,60.017,"<?xml version=""1.0""?>\n<Clock xmlns:dt=""urn:schemas-microsoft-com:datatypes""><Description dt:dt=""string"">E-Prime Primary Realtime Clock</Description><StartTime><Timestamp dt:dt=""int"">0</Timestamp><DateUtc dt:dt=""string"">2023-07-06T16:46:52Z</DateUtc></StartTime><FrequencyChanges><FrequencyChange><Frequency dt:dt=""r8"">10000000</Frequency><Timestamp dt:dt=""r8"">23317048660508</Timestamp><Current dt:dt=""r8"">0</Current><DateUtc dt:dt=""string"">2023-07-06T16:46:52Z</DateUtc></FrequencyChange></FrequencyChanges></Clock>\n",2.0.10.252,2.0.10.356,2.0.10.356,Professional,1.0.0.6
Proc3,,List11,,,,,,,475,3,450,450,2544,3,0,,25,,,,,,,,,,,5,1,5,,,,,,,,,,,,,,,,,,,,,,,,,,,,DelayDiscountingTitrated,07-06-2023,12:46:52,7/6/2023 4:46:52 PM,3003,1,18,DelayDiscountingTitrated-3003-1,-326800665,1,60.017,"<?xml version=""1.0""?>\n<Clock xmlns:dt=""urn:schemas-microsoft-com:datatypes""><Description dt:dt=""string"">E-Prime Primary Realtime Clock</Description><StartTime><Timestamp dt:dt=""int"">0</Timestamp><DateUtc dt:dt=""string"">2023-07-06T16:46:52Z</DateUtc></StartTime><FrequencyChanges><FrequencyChange><Frequency dt:dt=""r8"">10000000</Frequency><Timestamp dt:dt=""r8"">23317048660508</Timestamp><Current dt:dt=""r8"">0</Current><DateUtc dt:dt=""string"">2023-07-06T16:46:52Z</DateUtc></FrequencyChange></FrequencyChanges></Clock>\n",2.0.10.252,2.0.10.356,2.0.10.356,Professional,1.0.0.6
Proc3,,List11,,,,,,,487,3,475,475,2289,3,0,,12,,,,,,,,,,,6,1,6,,,,,,,,,,,,,,,,,,,,,,,,,,,,DelayDiscountingTitrated,07-06-2023,12:46:52,7/6/2023 4:46:52 PM,3003,1,18,DelayDiscountingTitrated-3003-1,-326800665,1,60.017,"<?xml version=""1.0""?>\n<Clock xmlns:dt=""urn:schemas-microsoft-com:datatypes""><Description dt:dt=""string"">E-Prime Primary Realtime Clock</Description><StartTime><Timestamp dt:dt=""int"">0</Timestamp><DateUtc dt:dt=""string"">2023-07-06T16:46:52Z</DateUtc></StartTime><FrequencyChanges><FrequencyChange><Frequency dt:dt=""r8"">10000000</Frequency><Timestamp dt:dt=""r8"">23317048660508</Timestamp><Current dt:dt=""r8"">0</Current><DateUtc dt:dt=""string"">2023-07-06T16:46:52Z</DateUtc></FrequencyChange></FrequencyChanges></Clock>\n",2.0.10.252,2.0.10.356,2.0.10.356,Professional,1.0.0.6
Proc3,,List11,,,,,,,493,3,487,487,2076,3,0,,6,,,,,,,,,,,7,1,7,,,,,,,,,,,,,,,,,,,,,,,,,,,,DelayDiscountingTitrated,07-06-2023,12:46:52,7/6/2023 4:46:52 PM,3003,1,18,DelayDiscountingTitrated-3003-1,-326800665,1,60.017,"<?xml version=""1.0""?>\n<Clock xmlns:dt=""urn:schemas-microsoft-com:datatypes""><Description dt:dt=""string"">E-Prime Primary Realtime Clock</Description><StartTime><Timestamp dt:dt=""int"">0</Timestamp><DateUtc dt:dt=""string"">2023-07-06T16:46:52Z</DateUtc></StartTime><FrequencyChanges><FrequencyChange><Frequency dt:dt=""r8"">10000000</Frequency><Timestamp dt:dt=""r8"">23317048660508</Timestamp><Current dt:dt=""r8"">0</Current><DateUtc dt:dt=""string"">2023-07-06T16:46:52Z</DateUtc></FrequencyChange></FrequencyChanges></Clock>\n",2.0.10.252,2.0.10.356,2.0.10.356,Professional,1.0.0.6
Proc3,,List11,,,,,,,496,3,493,493,2912,3,0,,3,,,,,,,,,,,8,1,8,,,,,,,,,,,,,,,,,,,,,,,,,,,,DelayDiscountingTitrated,07-06-2023,12:46:52,7/6/2023 4:46:52 PM,3003,1,18,DelayDiscountingTitrated-3003-1,-326800665,1,60.017,"<?xml version=""1.0""?>\n<Clock xmlns:dt=""urn:schemas-microsoft-com:datatypes""><Description dt:dt=""string"">E-Prime Primary Realtime Clock</Description><StartTime><Timestamp dt:dt=""int"">0</Timestamp><DateUtc dt:dt=""string"">2023-07-06T16:46:52Z</DateUtc></StartTime><FrequencyChanges><FrequencyChange><Frequency dt:dt=""r8"">10000000</Frequency><Timestamp dt:dt=""r8"">23317048660508</Timestamp><Current dt:dt=""r8"">0</Current><DateUtc dt:dt=""string"">2023-07-06T16:46:52Z</DateUtc></FrequencyChange></FrequencyChanges></Clock>\n",2.0.10.252,2.0.10.356,2.0.10.356,Professional,1.0.0.6
Proc3,,List11,,,,,,,498,3,496,496,2347,3,0,,2,,,,,,,,,,,9,1,9,,,,,,,,,,,,,,,,,,,,,,,,,,,,DelayDiscountingTitrated,07-06-2023,12:46:52,7/6/2023 4:46:52 PM,3003,1,18,DelayDiscountingTitrated-3003-1,-326800665,1,60.017,"<?xml version=""1.0""?>\n<Clock xmlns:dt=""urn:schemas-microsoft-com:datatypes""><Description dt:dt=""string"">E-Prime Primary Realtime Clock</Description><StartTime><Timestamp dt:dt=""int"">0</Timestamp><DateUtc dt:dt=""string"">2023-07-06T16:46:52Z</DateUtc></StartTime><FrequencyChanges><FrequencyChange><Frequency dt:dt=""r8"">10000000</Frequency><Timestamp dt:dt=""r8"">23317048660508</Timestamp><Current dt:dt=""r8"">0</Current><DateUtc dt:dt=""string"">2023-07-06T16:46:52Z</DateUtc></FrequencyChange></FrequencyChanges></Clock>\n",2.0.10.252,2.0.10.356,2.0.10.356,Professional,1.0.0.6
Proc3,,List11,,,,,,,497,1,498,498,2284,1,0,,1,,,,,,,,,,,10,1,10,,,,,,,,,,,,,,,,,,,,,,,,,,,,DelayDiscountingTitrated,07-06-2023,12:46:52,7/6/2023 4:46:52 PM,3003,1,18,DelayDiscountingTitrated-3003-1,-326800665,1,60.017,"<?xml version=""1.0""?>\n<Clock xmlns:dt=""urn:schemas-microsoft-com:datatypes""><Description dt:dt=""string"">E-Prime Primary Realtime Clock</Description><StartTime><Timestamp dt:dt=""int"">0</Timestamp><DateUtc dt:dt=""string"">2023-07-06T16:46:52Z</DateUtc></StartTime><FrequencyChanges><FrequencyChange><Frequency dt:dt=""r8"">10000000</Frequency><Timestamp dt:dt=""r8"">23317048660508</Timestamp><Current dt:dt=""r8"">0</Current><DateUtc dt:dt=""string"">2023-07-06T16:46:52Z</DateUtc></FrequencyChange></FrequencyChanges></Clock>\n",2.0.10.252,2.0.10.356,2.0.10.356,Professional,1.0.0.6
Proc3,,List11,,,,,,,497,3,498,497,1703,3,0,,,,,,,,,,,,,11,1,11,,,,,,,,,,,,,,,,,,,,,,,,,,,,DelayDiscountingTitrated,07-06-2023,12:46:52,7/6/2023 4:46:52 PM,3003,1,18,DelayDiscountingTitrated-3003-1,-326800665,1,60.017,"<?xml version=""1.0""?>\n<Clock xmlns:dt=""urn:schemas-microsoft-com:datatypes""><Description dt:dt=""string"">E-Prime Primary Realtime Clock</Description><StartTime><Timestamp dt:dt=""int"">0</Timestamp><DateUtc dt:dt=""string"">2023-07-06T16:46:52Z</DateUtc></StartTime><FrequencyChanges><FrequencyChange><Frequency dt:dt=""r8"">10000000</Frequency><Timestamp dt:dt=""r8"">23317048660508</Timestamp><Current dt:dt=""r8"">0</Current><DateUtc dt:dt=""string"">2023-07-06T16:46:52Z</DateUtc></FrequencyChange></FrequencyChanges></Clock>\n",2.0.10.252,2.0.10.356,2.0.10.356,Professional,1.0.0.6
discount3,,List6,,,,,,,,,,,,,,,,800,1 year,365,,,,,,,,,,,3,1,1,,,,,,,,,,,,,,,,,,,,,,,,,DelayDiscountingTitrated,07-06-2023,12:46:52,7/6/2023 4:46:52 PM,3003,1,18,DelayDiscountingTitrated-3003-1,-326800665,1,60.017,"<?xml version=""1.0""?>\n<Clock xmlns:dt=""urn:schemas-microsoft-com:datatypes""><Description dt:dt=""string"">E-Prime Primary Realtime Clock</Description><StartTime><Timestamp dt:dt=""int"">0</Timestamp><DateUtc dt:dt=""string"">2023-07-06T16:46:52Z</DateUtc></StartTime><FrequencyChanges><FrequencyChange><Frequency dt:dt=""r8"">10000000</Frequency><Timestamp dt:dt=""r8"">23317048660508</Timestamp><Current dt:dt=""r8"">0</Current><DateUtc dt:dt=""string"">2023-07-06T16:46:52Z</DateUtc></FrequencyChange></FrequencyChanges></Clock>\n",2.0.10.252,2.0.10.356,2.0.10.356,Professional,1.0.0.6
oneyearproc,,List1,,,,,,,,,,,,,,,,,,,,,,4,1,2,2,,,,,,,,,,,,,,,,,,,,,,,,,,,,,,,DelayDiscountingTitrated,07-06-2023,12:46:52,7/6/2023 4:46:52 PM,3003,1,18,DelayDiscountingTitrated-3003-1,-326800665,1,60.017,"<?xml version=""1.0""?>\n<Clock xmlns:dt=""urn:schemas-microsoft-com:datatypes""><Description dt:dt=""string"">E-Prime Primary Realtime Clock</Description><StartTime><Timestamp dt:dt=""int"">0</Timestamp><DateUtc dt:dt=""string"">2023-07-06T16:46:52Z</DateUtc></StartTime><FrequencyChanges><FrequencyChange><Frequency dt:dt=""r8"">10000000</Frequency><Timestamp dt:dt=""r8"">23317048660508</Timestamp><Current dt:dt=""r8"">0</Current><DateUtc dt:dt=""string"">2023-07-06T16:46:52Z</DateUtc></FrequencyChange></FrequencyChanges></Clock>\n",2.0.10.252,2.0.10.356,2.0.10.356,Professional,1.0.0.6
Init4,,List12,,,2586,1,0,,400,1,800,,,,,,,,,,,,,,,,,,,,,,,1,1,1,,,,,,,,,,,,,,,,,,,,,,DelayDiscountingTitrated,07-06-2023,12:46:52,7/6/2023 4:46:52 PM,3003,1,18,DelayDiscountingTitrated-3003-1,-326800665,1,60.017,"<?xml version=""1.0""?>\n<Clock xmlns:dt=""urn:schemas-microsoft-com:datatypes""><Description dt:dt=""string"">E-Prime Primary Realtime Clock</Description><StartTime><Timestamp dt:dt=""int"">0</Timestamp><DateUtc dt:dt=""string"">2023-07-06T16:46:52Z</DateUtc></StartTime><FrequencyChanges><FrequencyChange><Frequency dt:dt=""r8"">10000000</Frequency><Timestamp dt:dt=""r8"">23317048660508</Timestamp><Current dt:dt=""r8"">0</Current><DateUtc dt:dt=""string"">2023-07-06T16:46:52Z</DateUtc></FrequencyChange></FrequencyChanges></Clock>\n",2.0.10.252,2.0.10.356,2.0.10.356,Professional,1.0.0.6
Proc4,,List12,,,,,,,200,1,400,400,3521,1,0,,200,,,,,,,,,,,,,,,,,2,1,2,,,,,,,,,,,,,,,,,,,,,,DelayDiscountingTitrated,07-06-2023,12:46:52,7/6/2023 4:46:52 PM,3003,1,18,DelayDiscountingTitrated-3003-1,-326800665,1,60.017,"<?xml version=""1.0""?>\n<Clock xmlns:dt=""urn:schemas-microsoft-com:datatypes""><Description dt:dt=""string"">E-Prime Primary Realtime Clock</Description><StartTime><Timestamp dt:dt=""int"">0</Timestamp><DateUtc dt:dt=""string"">2023-07-06T16:46:52Z</DateUtc></StartTime><FrequencyChanges><FrequencyChange><Frequency dt:dt=""r8"">10000000</Frequency><Timestamp dt:dt=""r8"">23317048660508</Timestamp><Current dt:dt=""r8"">0</Current><DateUtc dt:dt=""string"">2023-07-06T16:46:52Z</DateUtc></FrequencyChange></FrequencyChanges></Clock>\n",2.0.10.252,2.0.10.356,2.0.10.356,Professional,1.0.0.6
Proc4,,List12,,,,,,,300,3,200,200,3788,3,0,,100,,,,,,,,,,,,,,,,,3,1,3,,,,,,,,,,,,,,,,,,,,,,DelayDiscountingTitrated,07-06-2023,12:46:52,7/6/2023 4:46:52 PM,3003,1,18,DelayDiscountingTitrated-3003-1,-326800665,1,60.017,"<?xml version=""1.0""?>\n<Clock xmlns:dt=""urn:schemas-microsoft-com:datatypes""><Description dt:dt=""string"">E-Prime Primary Realtime Clock</Description><StartTime><Timestamp dt:dt=""int"">0</Timestamp><DateUtc dt:dt=""string"">2023-07-06T16:46:52Z</DateUtc></StartTime><FrequencyChanges><FrequencyChange><Frequency dt:dt=""r8"">10000000</Frequency><Timestamp dt:dt=""r8"">23317048660508</Timestamp><Current dt:dt=""r8"">0</Current><DateUtc dt:dt=""string"">2023-07-06T16:46:52Z</DateUtc></FrequencyChange></FrequencyChanges></Clock>\n",2.0.10.252,2.0.10.356,2.0.10.356,Professional,1.0.0.6
Proc4,,List12,,,,,,,250,1,300,300,2804,1,0,,50,,,,,,,,,,,,,,,,,4,1,4,,,,,,,,,,,,,,,,,,,,,,DelayDiscountingTitrated,07-06-2023,12:46:52,7/6/2023 4:46:52 PM,3003,1,18,DelayDiscountingTitrated-3003-1,-326800665,1,60.017,"<?xml version=""1.0""?>\n<Clock xmlns:dt=""urn:schemas-microsoft-com:datatypes""><Description dt:dt=""string"">E-Prime Primary Realtime Clock</Description><StartTime><Timestamp dt:dt=""int"">0</Timestamp><DateUtc dt:dt=""string"">2023-07-06T16:46:52Z</DateUtc></StartTime><FrequencyChanges><FrequencyChange><Frequency dt:dt=""r8"">10000000</Frequency><Timestamp dt:dt=""r8"">23317048660508</Timestamp><Current dt:dt=""r8"">0</Current><DateUtc dt:dt=""string"">2023-07-06T16:46:52Z</DateUtc></FrequencyChange></FrequencyChanges></Clock>\n",2.0.10.252,2.0.10.356,2.0.10.356,Professional,1.0.0.6
Proc4,,List12,,,,,,,225,1,250,250,3435,1,0,,25,,,,,,,,,,,,,,,,,5,1,5,,,,,,,,,,,,,,,,,,,,,,DelayDiscountingTitrated,07-06-2023,12:46:52,7/6/2023 4:46:52 PM,3003,1,18,DelayDiscountingTitrated-3003-1,-326800665,1,60.017,"<?xml version=""1.0""?>\n<Clock xmlns:dt=""urn:schemas-microsoft-com:datatypes""><Description dt:dt=""string"">E-Prime Primary Realtime Clock</Description><StartTime><Timestamp dt:dt=""int"">0</Timestamp><DateUtc dt:dt=""string"">2023-07-06T16:46:52Z</DateUtc></StartTime><FrequencyChanges><FrequencyChange><Frequency dt:dt=""r8"">10000000</Frequency><Timestamp dt:dt=""r8"">23317048660508</Timestamp><Current dt:dt=""r8"">0</Current><DateUtc dt:dt=""string"">2023-07-06T16:46:52Z</DateUtc></FrequencyChange></FrequencyChanges></Clock>\n",2.0.10.252,2.0.10.356,2.0.10.356,Professional,1.0.0.6
Proc4,,List12,,,,,,,213,1,225,225,5153,1,0,,12,,,,,,,,,,,,,,,,,6,1,6,,,,,,,,,,,,,,,,,,,,,,DelayDiscountingTitrated,07-06-2023,12:46:52,7/6/2023 4:46:52 PM,3003,1,18,DelayDiscountingTitrated-3003-1,-326800665,1,60.017,"<?xml version=""1.0""?>\n<Clock xmlns:dt=""urn:schemas-microsoft-com:datatypes""><Description dt:dt=""string"">E-Prime Primary Realtime Clock</Description><StartTime><Timestamp dt:dt=""int"">0</Timestamp><DateUtc dt:dt=""string"">2023-07-06T16:46:52Z</DateUtc></StartTime><FrequencyChanges><FrequencyChange><Frequency dt:dt=""r8"">10000000</Frequency><Timestamp dt:dt=""r8"">23317048660508</Timestamp><Current dt:dt=""r8"">0</Current><DateUtc dt:dt=""string"">2023-07-06T16:46:52Z</DateUtc></FrequencyChange></FrequencyChanges></Clock>\n",2.0.10.252,2.0.10.356,2.0.10.356,Professional,1.0.0.6
Proc4,,List12,,,,,,,219,3,213,213,2211,3,0,,6,,,,,,,,,,,,,,,,,7,1,7,,,,,,,,,,,,,,,,,,,,,,DelayDiscountingTitrated,07-06-2023,12:46:52,7/6/2023 4:46:52 PM,3003,1,18,DelayDiscountingTitrated-3003-1,-326800665,1,60.017,"<?xml version=""1.0""?>\n<Clock xmlns:dt=""urn:schemas-microsoft-com:datatypes""><Description dt:dt=""string"">E-Prime Primary Realtime Clock</Description><StartTime><Timestamp dt:dt=""int"">0</Timestamp><DateUtc dt:dt=""string"">2023-07-06T16:46:52Z</DateUtc></StartTime><FrequencyChanges><FrequencyChange><Frequency dt:dt=""r8"">10000000</Frequency><Timestamp dt:dt=""r8"">23317048660508</Timestamp><Current dt:dt=""r8"">0</Current><DateUtc dt:dt=""string"">2023-07-06T16:46:52Z</DateUtc></FrequencyChange></FrequencyChanges></Clock>\n",2.0.10.252,2.0.10.356,2.0.10.356,Professional,1.0.0.6
Proc4,,List12,,,,,,,222,3,219,219,2105,3,0,,3,,,,,,,,,,,,,,,,,8,1,8,,,,,,,,,,,,,,,,,,,,,,DelayDiscountingTitrated,07-06-2023,12:46:52,7/6/2023 4:46:52 PM,3003,1,18,DelayDiscountingTitrated-3003-1,-326800665,1,60.017,"<?xml version=""1.0""?>\n<Clock xmlns:dt=""urn:schemas-microsoft-com:datatypes""><Description dt:dt=""string"">E-Prime Primary Realtime Clock</Description><StartTime><Timestamp dt:dt=""int"">0</Timestamp><DateUtc dt:dt=""string"">2023-07-06T16:46:52Z</DateUtc></StartTime><FrequencyChanges><FrequencyChange><Frequency dt:dt=""r8"">10000000</Frequency><Timestamp dt:dt=""r8"">23317048660508</Timestamp><Current dt:dt=""r8"">0</Current><DateUtc dt:dt=""string"">2023-07-06T16:46:52Z</DateUtc></FrequencyChange></FrequencyChanges></Clock>\n",2.0.10.252,2.0.10.356,2.0.10.356,Professional,1.0.0.6
Proc4,,List12,,,,,,,224,3,222,222,4044,3,0,,2,,,,,,,,,,,,,,,,,9,1,9,,,,,,,,,,,,,,,,,,,,,,DelayDiscountingTitrated,07-06-2023,12:46:52,7/6/2023 4:46:52 PM,3003,1,18,DelayDiscountingTitrated-3003-1,-326800665,1,60.017,"<?xml version=""1.0""?>\n<Clock xmlns:dt=""urn:schemas-microsoft-com:datatypes""><Description dt:dt=""string"">E-Prime Primary Realtime Clock</Description><StartTime><Timestamp dt:dt=""int"">0</Timestamp><DateUtc dt:dt=""string"">2023-07-06T16:46:52Z</DateUtc></StartTime><FrequencyChanges><FrequencyChange><Frequency dt:dt=""r8"">10000000</Frequency><Timestamp dt:dt=""r8"">23317048660508</Timestamp><Current dt:dt=""r8"">0</Current><DateUtc dt:dt=""string"">2023-07-06T16:46:52Z</DateUtc></FrequencyChange></FrequencyChanges></Clock>\n",2.0.10.252,2.0.10.356,2.0.10.356,Professional,1.0.0.6
Proc4,,List12,,,,,,,225,3,224,224,1578,3,0,,1,,,,,,,,,,,,,,,,,10,1,10,,,,,,,,,,,,,,,,,,,,,,DelayDiscountingTitrated,07-06-2023,12:46:52,7/6/2023 4:46:52 PM,3003,1,18,DelayDiscountingTitrated-3003-1,-326800665,1,60.017,"<?xml version=""1.0""?>\n<Clock xmlns:dt=""urn:schemas-microsoft-com:datatypes""><Description dt:dt=""string"">E-Prime Primary Realtime Clock</Description><StartTime><Timestamp dt:dt=""int"">0</Timestamp><DateUtc dt:dt=""string"">2023-07-06T16:46:52Z</DateUtc></StartTime><FrequencyChanges><FrequencyChange><Frequency dt:dt=""r8"">10000000</Frequency><Timestamp dt:dt=""r8"">23317048660508</Timestamp><Current dt:dt=""r8"">0</Current><DateUtc dt:dt=""string"">2023-07-06T16:46:52Z</DateUtc></FrequencyChange></FrequencyChanges></Clock>\n",2.0.10.252,2.0.10.356,2.0.10.356,Professional,1.0.0.6
Proc4,,List12,,,,,,,225,3,224,225,1753,3,0,,,,,,,,,,,,,,,,,,,11,1,11,,,,,,,,,,,,,,,,,,,,,,DelayDiscountingTitrated,07-06-2023,12:46:52,7/6/2023 4:46:52 PM,3003,1,18,DelayDiscountingTitrated-3003-1,-326800665,1,60.017,"<?xml version=""1.0""?>\n<Clock xmlns:dt=""urn:schemas-microsoft-com:datatypes""><Description dt:dt=""string"">E-Prime Primary Realtime Clock</Description><StartTime><Timestamp dt:dt=""int"">0</Timestamp><DateUtc dt:dt=""string"">2023-07-06T16:46:52Z</DateUtc></StartTime><FrequencyChanges><FrequencyChange><Frequency dt:dt=""r8"">10000000</Frequency><Timestamp dt:dt=""r8"">23317048660508</Timestamp><Current dt:dt=""r8"">0</Current><DateUtc dt:dt=""string"">2023-07-06T16:46:52Z</DateUtc></FrequencyChange></FrequencyChanges></Clock>\n",2.0.10.252,2.0.10.356,2.0.10.356,Professional,1.0.0.6
discount4,,List7,,,,,,,,,,,,,,,,800,5 years,1825,,,,,,,,,,,,,,,,,3,1,1,,,,,,,,,,,,,,,,,,,DelayDiscountingTitrated,07-06-2023,12:46:52,7/6/2023 4:46:52 PM,3003,1,18,DelayDiscountingTitrated-3003-1,-326800665,1,60.017,"<?xml version=""1.0""?>\n<Clock xmlns:dt=""urn:schemas-microsoft-com:datatypes""><Description dt:dt=""string"">E-Prime Primary Realtime Clock</Description><StartTime><Timestamp dt:dt=""int"">0</Timestamp><DateUtc dt:dt=""string"">2023-07-06T16:46:52Z</DateUtc></StartTime><FrequencyChanges><FrequencyChange><Frequency dt:dt=""r8"">10000000</Frequency><Timestamp dt:dt=""r8"">23317048660508</Timestamp><Current dt:dt=""r8"">0</Current><DateUtc dt:dt=""string"">2023-07-06T16:46:52Z</DateUtc></FrequencyChange></FrequencyChanges></Clock>\n",2.0.10.252,2.0.10.356,2.0.10.356,Professional,1.0.0.6
fiveyearproc,,List1,,,,,,,,,,,,,,,,,,,,,,5,1,3,3,,,,,,,,,,,,,,,,,,,,,,,,,,,,,,,DelayDiscountingTitrated,07-06-2023,12:46:52,7/6/2023 4:46:52 PM,3003,1,18,DelayDiscountingTitrated-3003-1,-326800665,1,60.017,"<?xml version=""1.0""?>\n<Clock xmlns:dt=""urn:schemas-microsoft-com:datatypes""><Description dt:dt=""string"">E-Prime Primary Realtime Clock</Description><StartTime><Timestamp dt:dt=""int"">0</Timestamp><DateUtc dt:dt=""string"">2023-07-06T16:46:52Z</DateUtc></StartTime><FrequencyChanges><FrequencyChange><Frequency dt:dt=""r8"">10000000</Frequency><Timestamp dt:dt=""r8"">23317048660508</Timestamp><Current dt:dt=""r8"">0</Current><DateUtc dt:dt=""string"">2023-07-06T16:46:52Z</DateUtc></FrequencyChange></FrequencyChanges></Clock>\n",2.0.10.252,2.0.10.356,2.0.10.356,Professional,1.0.0.6
TrialProcInit,,List2,,,2745,3,0,,900,3,800,,,,,,,,,,,,,,,,,,,,,,,,,,,,,1,1,1,,,,,,,,,,,,,,,,DelayDiscountingTitrated,07-06-2023,12:46:52,7/6/2023 4:46:52 PM,3003,1,18,DelayDiscountingTitrated-3003-1,-326800665,1,60.017,"<?xml version=""1.0""?>\n<Clock xmlns:dt=""urn:schemas-microsoft-com:datatypes""><Description dt:dt=""string"">E-Prime Primary Realtime Clock</Description><StartTime><Timestamp dt:dt=""int"">0</Timestamp><DateUtc dt:dt=""string"">2023-07-06T16:46:52Z</DateUtc></StartTime><FrequencyChanges><FrequencyChange><Frequency dt:dt=""r8"">10000000</Frequency><Timestamp dt:dt=""r8"">23317048660508</Timestamp><Current dt:dt=""r8"">0</Current><DateUtc dt:dt=""string"">2023-07-06T16:46:52Z</DateUtc></FrequencyChange></FrequencyChanges></Clock>\n",2.0.10.252,2.0.10.356,2.0.10.356,Professional,1.0.0.6
TrialProc,,List2,,,,,,,950,3,900,900,1850,3,0,,50,,,,,,,,,,,,,,,,,,,,,,,2,1,2,,,,,,,,,,,,,,,,DelayDiscountingTitrated,07-06-2023,12:46:52,7/6/2023 4:46:52 PM,3003,1,18,DelayDiscountingTitrated-3003-1,-326800665,1,60.017,"<?xml version=""1.0""?>\n<Clock xmlns:dt=""urn:schemas-microsoft-com:datatypes""><Description dt:dt=""string"">E-Prime Primary Realtime Clock</Description><StartTime><Timestamp dt:dt=""int"">0</Timestamp><DateUtc dt:dt=""string"">2023-07-06T16:46:52Z</DateUtc></StartTime><FrequencyChanges><FrequencyChange><Frequency dt:dt=""r8"">10000000</Frequency><Timestamp dt:dt=""r8"">23317048660508</Timestamp><Current dt:dt=""r8"">0</Current><DateUtc dt:dt=""string"">2023-07-06T16:46:52Z</DateUtc></FrequencyChange></FrequencyChanges></Clock>\n",2.0.10.252,2.0.10.356,2.0.10.356,Professional,1.0.0.6
TrialProc,,List2,,,,,,,975,3,950,950,1263,3,0,,25,,,,,,,,,,,,,,,,,,,,,,,3,1,3,,,,,,,,,,,,,,,,DelayDiscountingTitrated,07-06-2023,12:46:52,7/6/2023 4:46:52 PM,3003,1,18,DelayDiscountingTitrated-3003-1,-326800665,1,60.017,"<?xml version=""1.0""?>\n<Clock xmlns:dt=""urn:schemas-microsoft-com:datatypes""><Description dt:dt=""string"">E-Prime Primary Realtime Clock</Description><StartTime><Timestamp dt:dt=""int"">0</Timestamp><DateUtc dt:dt=""string"">2023-07-06T16:46:52Z</DateUtc></StartTime><FrequencyChanges><FrequencyChange><Frequency dt:dt=""r8"">10000000</Frequency><Timestamp dt:dt=""r8"">23317048660508</Timestamp><Current dt:dt=""r8"">0</Current><DateUtc dt:dt=""string"">2023-07-06T16:46:52Z</DateUtc></FrequencyChange></FrequencyChanges></Clock>\n",2.0.10.252,2.0.10.356,2.0.10.356,Professional,1.0.0.6
TrialProc,,List2,,,,,,,987,3,975,975,1420,3,0,,12,,,,,,,,,,,,,,,,,,,,,,,4,1,4,,,,,,,,,,,,,,,,DelayDiscountingTitrated,07-06-2023,12:46:52,7/6/2023 4:46:52 PM,3003,1,18,DelayDiscountingTitrated-3003-1,-326800665,1,60.017,"<?xml version=""1.0""?>\n<Clock xmlns:dt=""urn:schemas-microsoft-com:datatypes""><Description dt:dt=""string"">E-Prime Primary Realtime Clock</Description><StartTime><Timestamp dt:dt=""int"">0</Timestamp><DateUtc dt:dt=""string"">2023-07-06T16:46:52Z</DateUtc></StartTime><FrequencyChanges><FrequencyChange><Frequency dt:dt=""r8"">10000000</Frequency><Timestamp dt:dt=""r8"">23317048660508</Timestamp><Current dt:dt=""r8"">0</Current><DateUtc dt:dt=""string"">2023-07-06T16:46:52Z</DateUtc></FrequencyChange></FrequencyChanges></Clock>\n",2.0.10.252,2.0.10.356,2.0.10.356,Professional,1.0.0.6
TrialProc,,List2,,,,,,,993,3,987,987,1649,3,0,,6,,,,,,,,,,,,,,,,,,,,,,,5,1,5,,,,,,,,,,,,,,,,DelayDiscountingTitrated,07-06-2023,12:46:52,7/6/2023 4:46:52 PM,3003,1,18,DelayDiscountingTitrated-3003-1,-326800665,1,60.017,"<?xml version=""1.0""?>\n<Clock xmlns:dt=""urn:schemas-microsoft-com:datatypes""><Description dt:dt=""string"">E-Prime Primary Realtime Clock</Description><StartTime><Timestamp dt:dt=""int"">0</Timestamp><DateUtc dt:dt=""string"">2023-07-06T16:46:52Z</DateUtc></StartTime><FrequencyChanges><FrequencyChange><Frequency dt:dt=""r8"">10000000</Frequency><Timestamp dt:dt=""r8"">23317048660508</Timestamp><Current dt:dt=""r8"">0</Current><DateUtc dt:dt=""string"">2023-07-06T16:46:52Z</DateUtc></FrequencyChange></FrequencyChanges></Clock>\n",2.0.10.252,2.0.10.356,2.0.10.356,Professional,1.0.0.6
TrialProc,,List2,,,,,,,997,3,993,993,1798,3,0,,4,,,,,,,,,,,,,,,,,,,,,,,6,1,6,,,,,,,,,,,,,,,,DelayDiscountingTitrated,07-06-2023,12:46:52,7/6/2023 4:46:52 PM,3003,1,18,DelayDiscountingTitrated-3003-1,-326800665,1,60.017,"<?xml version=""1.0""?>\n<Clock xmlns:dt=""urn:schemas-microsoft-com:datatypes""><Description dt:dt=""string"">E-Prime Primary Realtime Clock</Description><StartTime><Timestamp dt:dt=""int"">0</Timestamp><DateUtc dt:dt=""string"">2023-07-06T16:46:52Z</DateUtc></StartTime><FrequencyChanges><FrequencyChange><Frequency dt:dt=""r8"">10000000</Frequency><Timestamp dt:dt=""r8"">23317048660508</Timestamp><Current dt:dt=""r8"">0</Current><DateUtc dt:dt=""string"">2023-07-06T16:46:52Z</DateUtc></FrequencyChange></FrequencyChanges></Clock>\n",2.0.10.252,2.0.10.356,2.0.10.356,Professional,1.0.0.6
TrialProc,,List2,,,,,,,999,3,997,997,1381,3,0,,2,,,,,,,,,,,,,,,,,,,,,,,7,1,7,,,,,,,,,,,,,,,,DelayDiscountingTitrated,07-06-2023,12:46:52,7/6/2023 4:46:52 PM,3003,1,18,DelayDiscountingTitrated-3003-1,-326800665,1,60.017,"<?xml version=""1.0""?>\n<Clock xmlns:dt=""urn:schemas-microsoft-com:datatypes""><Description dt:dt=""string"">E-Prime Primary Realtime Clock</Description><StartTime><Timestamp dt:dt=""int"">0</Timestamp><DateUtc dt:dt=""string"">2023-07-06T16:46:52Z</DateUtc></StartTime><FrequencyChanges><FrequencyChange><Frequency dt:dt=""r8"">10000000</Frequency><Timestamp dt:dt=""r8"">23317048660508</Timestamp><Current dt:dt=""r8"">0</Current><DateUtc dt:dt=""string"">2023-07-06T16:46:52Z</DateUtc></FrequencyChange></FrequencyChanges></Clock>\n",2.0.10.252,2.0.10.356,2.0.10.356,Professional,1.0.0.6
TrialProc,,List2,,,,,,,999,3,,999,1300,3,0,,,,,,,,,,,,,,,,,,,,,,,,,8,1,8,,,,,,,,,,,,,,,,DelayDiscountingTitrated,07-06-2023,12:46:52,7/6/2023 4:46:52 PM,3003,1,18,DelayDiscountingTitrated-3003-1,-326800665,1,60.017,"<?xml version=""1.0""?>\n<Clock xmlns:dt=""urn:schemas-microsoft-com:datatypes""><Description dt:dt=""string"">E-Prime Primary Realtime Clock</Description><StartTime><Timestamp dt:dt=""int"">0</Timestamp><DateUtc dt:dt=""string"">2023-07-06T16:46:52Z</DateUtc></StartTime><FrequencyChanges><FrequencyChange><Frequency dt:dt=""r8"">10000000</Frequency><Timestamp dt:dt=""r8"">23317048660508</Timestamp><Current dt:dt=""r8"">0</Current><DateUtc dt:dt=""string"">2023-07-06T16:46:52Z</DateUtc></FrequencyChange></FrequencyChanges></Clock>\n",2.0.10.252,2.0.10.356,2.0.10.356,Professional,1.0.0.6
discount,,List3,,,,,,,,,,,,,,,,800,1 week,7,,,,,,,,,,,,,,,,,,,,,,,3,1,1,,,,,,,,,,,,,DelayDiscountingTitrated,07-06-2023,12:46:52,7/6/2023 4:46:52 PM,3003,1,18,DelayDiscountingTitrated-3003-1,-326800665,1,60.017,"<?xml version=""1.0""?>\n<Clock xmlns:dt=""urn:schemas-microsoft-com:datatypes""><Description dt:dt=""string"">E-Prime Primary Realtime Clock</Description><StartTime><Timestamp dt:dt=""int"">0</Timestamp><DateUtc dt:dt=""string"">2023-07-06T16:46:52Z</DateUtc></StartTime><FrequencyChanges><FrequencyChange><Frequency dt:dt=""r8"">10000000</Frequency><Timestamp dt:dt=""r8"">23317048660508</Timestamp><Current dt:dt=""r8"">0</Current><DateUtc dt:dt=""string"">2023-07-06T16:46:52Z</DateUtc></FrequencyChange></FrequencyChanges></Clock>\n",2.0.10.252,2.0.10.356,2.0.10.356,Professional,1.0.0.6
onewkproc,,List1,,,,,,,,,,,,,,,,,,,,,,1,1,4,4,,,,,,,,,,,,,,,,,,,,,,,,,,,,,,,DelayDiscountingTitrated,07-06-2023,12:46:52,7/6/2023 4:46:52 PM,3003,1,18,DelayDiscountingTitrated-3003-1,-326800665,1,60.017,"<?xml version=""1.0""?>\n<Clock xmlns:dt=""urn:schemas-microsoft-com:datatypes""><Description dt:dt=""string"">E-Prime Primary Realtime Clock</Description><StartTime><Timestamp dt:dt=""int"">0</Timestamp><DateUtc dt:dt=""string"">2023-07-06T16:46:52Z</DateUtc></StartTime><FrequencyChanges><FrequencyChange><Frequency dt:dt=""r8"">10000000</Frequency><Timestamp dt:dt=""r8"">23317048660508</Timestamp><Current dt:dt=""r8"">0</Current><DateUtc dt:dt=""string"">2023-07-06T16:46:52Z</DateUtc></FrequencyChange></FrequencyChanges></Clock>\n",2.0.10.252,2.0.10.356,2.0.10.356,Professional,1.0.0.6
Init2,,List10,,,5690,3,0,,900,3,800,,,,,,,,,,,,,,,,,,,,,,,,,,,,,,,,,,,1,1,1,,,,,,,,,,DelayDiscountingTitrated,07-06-2023,12:46:52,7/6/2023 4:46:52 PM,3003,1,18,DelayDiscountingTitrated-3003-1,-326800665,1,60.017,"<?xml version=""1.0""?>\n<Clock xmlns:dt=""urn:schemas-microsoft-com:datatypes""><Description dt:dt=""string"">E-Prime Primary Realtime Clock</Description><StartTime><Timestamp dt:dt=""int"">0</Timestamp><DateUtc dt:dt=""string"">2023-07-06T16:46:52Z</DateUtc></StartTime><FrequencyChanges><FrequencyChange><Frequency dt:dt=""r8"">10000000</Frequency><Timestamp dt:dt=""r8"">23317048660508</Timestamp><Current dt:dt=""r8"">0</Current><DateUtc dt:dt=""string"">2023-07-06T16:46:52Z</DateUtc></FrequencyChange></FrequencyChanges></Clock>\n",2.0.10.252,2.0.10.356,2.0.10.356,Professional,1.0.0.6
Proc2,,List10,,,,,,,950,3,900,900,5903,3,0,,50,,,,,,,,,,,,,,,,,,,,,,,,,,,,,2,1,2,,,,,,,,,,DelayDiscountingTitrated,07-06-2023,12:46:52,7/6/2023 4:46:52 PM,3003,1,18,DelayDiscountingTitrated-3003-1,-326800665,1,60.017,"<?xml version=""1.0""?>\n<Clock xmlns:dt=""urn:schemas-microsoft-com:datatypes""><Description dt:dt=""string"">E-Prime Primary Realtime Clock</Description><StartTime><Timestamp dt:dt=""int"">0</Timestamp><DateUtc dt:dt=""string"">2023-07-06T16:46:52Z</DateUtc></StartTime><FrequencyChanges><FrequencyChange><Frequency dt:dt=""r8"">10000000</Frequency><Timestamp dt:dt=""r8"">23317048660508</Timestamp><Current dt:dt=""r8"">0</Current><DateUtc dt:dt=""string"">2023-07-06T16:46:52Z</DateUtc></FrequencyChange></FrequencyChanges></Clock>\n",2.0.10.252,2.0.10.356,2.0.10.356,Professional,1.0.0.6
Proc2,,List10,,,,,,,975,3,950,950,2443,3,0,,25,,,,,,,,,,,,,,,,,,,,,,,,,,,,,3,1,3,,,,,,,,,,DelayDiscountingTitrated,07-06-2023,12:46:52,7/6/2023 4:46:52 PM,3003,1,18,DelayDiscountingTitrated-3003-1,-326800665,1,60.017,"<?xml version=""1.0""?>\n<Clock xmlns:dt=""urn:schemas-microsoft-com:datatypes""><Description dt:dt=""string"">E-Prime Primary Realtime Clock</Description><StartTime><Timestamp dt:dt=""int"">0</Timestamp><DateUtc dt:dt=""string"">2023-07-06T16:46:52Z</DateUtc></StartTime><FrequencyChanges><FrequencyChange><Frequency dt:dt=""r8"">10000000</Frequency><Timestamp dt:dt=""r8"">23317048660508</Timestamp><Current dt:dt=""r8"">0</Current><DateUtc dt:dt=""string"">2023-07-06T16:46:52Z</DateUtc></FrequencyChange></FrequencyChanges></Clock>\n",2.0.10.252,2.0.10.356,2.0.10.356,Professional,1.0.0.6
Proc2,,List10,,,,,,,987,3,975,975,2192,3,0,,12,,,,,,,,,,,,,,,,,,,,,,,,,,,,,4,1,4,,,,,,,,,,DelayDiscountingTitrated,07-06-2023,12:46:52,7/6/2023 4:46:52 PM,3003,1,18,DelayDiscountingTitrated-3003-1,-326800665,1,60.017,"<?xml version=""1.0""?>\n<Clock xmlns:dt=""urn:schemas-microsoft-com:datatypes""><Description dt:dt=""string"">E-Prime Primary Realtime Clock</Description><StartTime><Timestamp dt:dt=""int"">0</Timestamp><DateUtc dt:dt=""string"">2023-07-06T16:46:52Z</DateUtc></StartTime><FrequencyChanges><FrequencyChange><Frequency dt:dt=""r8"">10000000</Frequency><Timestamp dt:dt=""r8"">23317048660508</Timestamp><Current dt:dt=""r8"">0</Current><DateUtc dt:dt=""string"">2023-07-06T16:46:52Z</DateUtc></FrequencyChange></FrequencyChanges></Clock>\n",2.0.10.252,2.0.10.356,2.0.10.356,Professional,1.0.0.6
Proc2,,List10,,,,,,,993,3,987,987,2656,3,0,,6,,,,,,,,,,,,,,,,,,,,,,,,,,,,,5,1,5,,,,,,,,,,DelayDiscountingTitrated,07-06-2023,12:46:52,7/6/2023 4:46:52 PM,3003,1,18,DelayDiscountingTitrated-3003-1,-326800665,1,60.017,"<?xml version=""1.0""?>\n<Clock xmlns:dt=""urn:schemas-microsoft-com:datatypes""><Description dt:dt=""string"">E-Prime Primary Realtime Clock</Description><StartTime><Timestamp dt:dt=""int"">0</Timestamp><DateUtc dt:dt=""string"">2023-07-06T16:46:52Z</DateUtc></StartTime><FrequencyChanges><FrequencyChange><Frequency dt:dt=""r8"">10000000</Frequency><Timestamp dt:dt=""r8"">23317048660508</Timestamp><Current dt:dt=""r8"">0</Current><DateUtc dt:dt=""string"">2023-07-06T16:46:52Z</DateUtc></FrequencyChange></FrequencyChanges></Clock>\n",2.0.10.252,2.0.10.356,2.0.10.356,Professional,1.0.0.6
Proc2,,List10,,,,,,,990,1,993,993,2005,1,0,,3,,,,,,,,,,,,,,,,,,,,,,,,,,,,,6,1,6,,,,,,,,,,DelayDiscountingTitrated,07-06-2023,12:46:52,7/6/2023 4:46:52 PM,3003,1,18,DelayDiscountingTitrated-3003-1,-326800665,1,60.017,"<?xml version=""1.0""?>\n<Clock xmlns:dt=""urn:schemas-microsoft-com:datatypes""><Description dt:dt=""string"">E-Prime Primary Realtime Clock</Description><StartTime><Timestamp dt:dt=""int"">0</Timestamp><DateUtc dt:dt=""string"">2023-07-06T16:46:52Z</DateUtc></StartTime><FrequencyChanges><FrequencyChange><Frequency dt:dt=""r8"">10000000</Frequency><Timestamp dt:dt=""r8"">23317048660508</Timestamp><Current dt:dt=""r8"">0</Current><DateUtc dt:dt=""string"">2023-07-06T16:46:52Z</DateUtc></FrequencyChange></FrequencyChanges></Clock>\n",2.0.10.252,2.0.10.356,2.0.10.356,Professional,1.0.0.6
Proc2,,List10,,,,,,,988,1,990,990,1853,1,0,,2,,,,,,,,,,,,,,,,,,,,,,,,,,,,,7,1,7,,,,,,,,,,DelayDiscountingTitrated,07-06-2023,12:46:52,7/6/2023 4:46:52 PM,3003,1,18,DelayDiscountingTitrated-3003-1,-326800665,1,60.017,"<?xml version=""1.0""?>\n<Clock xmlns:dt=""urn:schemas-microsoft-com:datatypes""><Description dt:dt=""string"">E-Prime Primary Realtime Clock</Description><StartTime><Timestamp dt:dt=""int"">0</Timestamp><DateUtc dt:dt=""string"">2023-07-06T16:46:52Z</DateUtc></StartTime><FrequencyChanges><FrequencyChange><Frequency dt:dt=""r8"">10000000</Frequency><Timestamp dt:dt=""r8"">23317048660508</Timestamp><Current dt:dt=""r8"">0</Current><DateUtc dt:dt=""string"">2023-07-06T16:46:52Z</DateUtc></FrequencyChange></FrequencyChanges></Clock>\n",2.0.10.252,2.0.10.356,2.0.10.356,Professional,1.0.0.6
Proc2,,List10,,,,,,,989,3,988,988,2945,3,0,,1,,,,,,,,,,,,,,,,,,,,,,,,,,,,,8,1,8,,,,,,,,,,DelayDiscountingTitrated,07-06-2023,12:46:52,7/6/2023 4:46:52 PM,3003,1,18,DelayDiscountingTitrated-3003-1,-326800665,1,60.017,"<?xml version=""1.0""?>\n<Clock xmlns:dt=""urn:schemas-microsoft-com:datatypes""><Description dt:dt=""string"">E-Prime Primary Realtime Clock</Description><StartTime><Timestamp dt:dt=""int"">0</Timestamp><DateUtc dt:dt=""string"">2023-07-06T16:46:52Z</DateUtc></StartTime><FrequencyChanges><FrequencyChange><Frequency dt:dt=""r8"">10000000</Frequency><Timestamp dt:dt=""r8"">23317048660508</Timestamp><Current dt:dt=""r8"">0</Current><DateUtc dt:dt=""string"">2023-07-06T16:46:52Z</DateUtc></FrequencyChange></FrequencyChanges></Clock>\n",2.0.10.252,2.0.10.356,2.0.10.356,Professional,1.0.0.6
Proc2,,List10,,,,,,,989,1,988,989,1954,1,0,,,,,,,,,,,,,,,,,,,,,,,,,,,,,,,9,1,9,,,,,,,,,,DelayDiscountingTitrated,07-06-2023,12:46:52,7/6/2023 4:46:52 PM,3003,1,18,DelayDiscountingTitrated-3003-1,-326800665,1,60.017,"<?xml version=""1.0""?>\n<Clock xmlns:dt=""urn:schemas-microsoft-com:datatypes""><Description dt:dt=""string"">E-Prime Primary Realtime Clock</Description><StartTime><Timestamp dt:dt=""int"">0</Timestamp><DateUtc dt:dt=""string"">2023-07-06T16:46:52Z</DateUtc></StartTime><FrequencyChanges><FrequencyChange><Frequency dt:dt=""r8"">10000000</Frequency><Timestamp dt:dt=""r8"">23317048660508</Timestamp><Current dt:dt=""r8"">0</Current><DateUtc dt:dt=""string"">2023-07-06T16:46:52Z</DateUtc></FrequencyChange></FrequencyChanges></Clock>\n",2.0.10.252,2.0.10.356,2.0.10.356,Professional,1.0.0.6
discount2,,List5,,,,,,,,,,,,,,,,800,6 month,180,,,,,,,,,,,,,,,,,,,,,,,,,,,,,3,1,1,,,,,,,DelayDiscountingTitrated,07-06-2023,12:46:52,7/6/2023 4:46:52 PM,3003,1,18,DelayDiscountingTitrated-3003-1,-326800665,1,60.017,"<?xml version=""1.0""?>\n<Clock xmlns:dt=""urn:schemas-microsoft-com:datatypes""><Description dt:dt=""string"">E-Prime Primary Realtime Clock</Description><StartTime><Timestamp dt:dt=""int"">0</Timestamp><DateUtc dt:dt=""string"">2023-07-06T16:46:52Z</DateUtc></StartTime><FrequencyChanges><FrequencyChange><Frequency dt:dt=""r8"">10000000</Frequency><Timestamp dt:dt=""r8"">23317048660508</Timestamp><Current dt:dt=""r8"">0</Current><DateUtc dt:dt=""string"">2023-07-06T16:46:52Z</DateUtc></FrequencyChange></FrequencyChanges></Clock>\n",2.0.10.252,2.0.10.356,2.0.10.356,Professional,1.0.0.6
sixmthproc,,List1,,,,,,,,,,,,,,,,,,,,,,3,1,5,5,,,,,,,,,,,,,,,,,,,,,,,,,,,,,,,DelayDiscountingTitrated,07-06-2023,12:46:52,7/6/2023 4:46:52 PM,3003,1,18,DelayDiscountingTitrated-3003-1,-326800665,1,60.017,"<?xml version=""1.0""?>\n<Clock xmlns:dt=""urn:schemas-microsoft-com:datatypes""><Description dt:dt=""string"">E-Prime Primary Realtime Clock</Description><StartTime><Timestamp dt:dt=""int"">0</Timestamp><DateUtc dt:dt=""string"">2023-07-06T16:46:52Z</DateUtc></StartTime><FrequencyChanges><FrequencyChange><Frequency dt:dt=""r8"">10000000</Frequency><Timestamp dt:dt=""r8"">23317048660508</Timestamp><Current dt:dt=""r8"">0</Current><DateUtc dt:dt=""string"">2023-07-06T16:46:52Z</DateUtc></FrequencyChange></FrequencyChanges></Clock>\n",2.0.10.252,2.0.10.356,2.0.10.356,Professional,1.0.0.6
Init5,,List13,,,2953,1,0,,250,1,500,,,,,,,,,,,,,,,,,,,,,,,,,,,,,,,,,,,,,,,,,1,1,1,,,,DelayDiscountingTitrated,07-06-2023,12:46:52,7/6/2023 4:46:52 PM,3003,1,18,DelayDiscountingTitrated-3003-1,-326800665,1,60.017,"<?xml version=""1.0""?>\n<Clock xmlns:dt=""urn:schemas-microsoft-com:datatypes""><Description dt:dt=""string"">E-Prime Primary Realtime Clock</Description><StartTime><Timestamp dt:dt=""int"">0</Timestamp><DateUtc dt:dt=""string"">2023-07-06T16:46:52Z</DateUtc></StartTime><FrequencyChanges><FrequencyChange><Frequency dt:dt=""r8"">10000000</Frequency><Timestamp dt:dt=""r8"">23317048660508</Timestamp><Current dt:dt=""r8"">0</Current><DateUtc dt:dt=""string"">2023-07-06T16:46:52Z</DateUtc></FrequencyChange></FrequencyChanges></Clock>\n",2.0.10.252,2.0.10.356,2.0.10.356,Professional,1.0.0.6
Proc5,,List13,,,,,,,125,1,250,250,3250,1,0,,125,,,,,,,,,,,,,,,,,,,,,,,,,,,,,,,,,,,2,1,2,,,,DelayDiscountingTitrated,07-06-2023,12:46:52,7/6/2023 4:46:52 PM,3003,1,18,DelayDiscountingTitrated-3003-1,-326800665,1,60.017,"<?xml version=""1.0""?>\n<Clock xmlns:dt=""urn:schemas-microsoft-com:datatypes""><Description dt:dt=""string"">E-Prime Primary Realtime Clock</Description><StartTime><Timestamp dt:dt=""int"">0</Timestamp><DateUtc dt:dt=""string"">2023-07-06T16:46:52Z</DateUtc></StartTime><FrequencyChanges><FrequencyChange><Frequency dt:dt=""r8"">10000000</Frequency><Timestamp dt:dt=""r8"">23317048660508</Timestamp><Current dt:dt=""r8"">0</Current><DateUtc dt:dt=""string"">2023-07-06T16:46:52Z</DateUtc></FrequencyChange></FrequencyChanges></Clock>\n",2.0.10.252,2.0.10.356,2.0.10.356,Professional,1.0.0.6
Proc5,,List13,,,,,,,187,3,125,125,2752,3,0,,62,,,,,,,,,,,,,,,,,,,,,,,,,,,,,,,,,,,3,1,3,,,,DelayDiscountingTitrated,07-06-2023,12:46:52,7/6/2023 4:46:52 PM,3003,1,18,DelayDiscountingTitrated-3003-1,-326800665,1,60.017,"<?xml version=""1.0""?>\n<Clock xmlns:dt=""urn:schemas-microsoft-com:datatypes""><Description dt:dt=""string"">E-Prime Primary Realtime Clock</Description><StartTime><Timestamp dt:dt=""int"">0</Timestamp><DateUtc dt:dt=""string"">2023-07-06T16:46:52Z</DateUtc></StartTime><FrequencyChanges><FrequencyChange><Frequency dt:dt=""r8"">10000000</Frequency><Timestamp dt:dt=""r8"">23317048660508</Timestamp><Current dt:dt=""r8"">0</Current><DateUtc dt:dt=""string"">2023-07-06T16:46:52Z</DateUtc></FrequencyChange></FrequencyChanges></Clock>\n",2.0.10.252,2.0.10.356,2.0.10.356,Professional,1.0.0.6
Proc5,,List13,,,,,,,218,3,187,187,3096,3,0,,31,,,,,,,,,,,,,,,,,,,,,,,,,,,,,,,,,,,4,1,4,,,,DelayDiscountingTitrated,07-06-2023,12:46:52,7/6/2023 4:46:52 PM,3003,1,18,DelayDiscountingTitrated-3003-1,-326800665,1,60.017,"<?xml version=""1.0""?>\n<Clock xmlns:dt=""urn:schemas-microsoft-com:datatypes""><Description dt:dt=""string"">E-Prime Primary Realtime Clock</Description><StartTime><Timestamp dt:dt=""int"">0</Timestamp><DateUtc dt:dt=""string"">2023-07-06T16:46:52Z</DateUtc></StartTime><FrequencyChanges><FrequencyChange><Frequency dt:dt=""r8"">10000000</Frequency><Timestamp dt:dt=""r8"">23317048660508</Timestamp><Current dt:dt=""r8"">0</Current><DateUtc dt:dt=""string"">2023-07-06T16:46:52Z</DateUtc></FrequencyChange></FrequencyChanges></Clock>\n",2.0.10.252,2.0.10.356,2.0.10.356,Professional,1.0.0.6
Proc5,,List13,,,,,,,202,1,218,218,1524,1,0,,16,,,,,,,,,,,,,,,,,,,,,,,,,,,,,,,,,,,5,1,5,,,,DelayDiscountingTitrated,07-06-2023,12:46:52,7/6/2023 4:46:52 PM,3003,1,18,DelayDiscountingTitrated-3003-1,-326800665,1,60.017,"<?xml version=""1.0""?>\n<Clock xmlns:dt=""urn:schemas-microsoft-com:datatypes""><Description dt:dt=""string"">E-Prime Primary Realtime Clock</Description><StartTime><Timestamp dt:dt=""int"">0</Timestamp><DateUtc dt:dt=""string"">2023-07-06T16:46:52Z</DateUtc></StartTime><FrequencyChanges><FrequencyChange><Frequency dt:dt=""r8"">10000000</Frequency><Timestamp dt:dt=""r8"">23317048660508</Timestamp><Current dt:dt=""r8"">0</Current><DateUtc dt:dt=""string"">2023-07-06T16:46:52Z</DateUtc></FrequencyChange></FrequencyChanges></Clock>\n",2.0.10.252,2.0.10.356,2.0.10.356,Professional,1.0.0.6
Proc5,,List13,,,,,,,194,1,202,202,1431,1,0,,8,,,,,,,,,,,,,,,,,,,,,,,,,,,,,,,,,,,6,1,6,,,,DelayDiscountingTitrated,07-06-2023,12:46:52,7/6/2023 4:46:52 PM,3003,1,18,DelayDiscountingTitrated-3003-1,-326800665,1,60.017,"<?xml version=""1.0""?>\n<Clock xmlns:dt=""urn:schemas-microsoft-com:datatypes""><Description dt:dt=""string"">E-Prime Primary Realtime Clock</Description><StartTime><Timestamp dt:dt=""int"">0</Timestamp><DateUtc dt:dt=""string"">2023-07-06T16:46:52Z</DateUtc></StartTime><FrequencyChanges><FrequencyChange><Frequency dt:dt=""r8"">10000000</Frequency><Timestamp dt:dt=""r8"">23317048660508</Timestamp><Current dt:dt=""r8"">0</Current><DateUtc dt:dt=""string"">2023-07-06T16:46:52Z</DateUtc></FrequencyChange></FrequencyChanges></Clock>\n",2.0.10.252,2.0.10.356,2.0.10.356,Professional,1.0.0.6
Proc5,,List13,,,,,,,198,3,194,194,1884,3,0,,4,,,,,,,,,,,,,,,,,,,,,,,,,,,,,,,,,,,7,1,7,,,,DelayDiscountingTitrated,07-06-2023,12:46:52,7/6/2023 4:46:52 PM,3003,1,18,DelayDiscountingTitrated-3003-1,-326800665,1,60.017,"<?xml version=""1.0""?>\n<Clock xmlns:dt=""urn:schemas-microsoft-com:datatypes""><Description dt:dt=""string"">E-Prime Primary Realtime Clock</Description><StartTime><Timestamp dt:dt=""int"">0</Timestamp><DateUtc dt:dt=""string"">2023-07-06T16:46:52Z</DateUtc></StartTime><FrequencyChanges><FrequencyChange><Frequency dt:dt=""r8"">10000000</Frequency><Timestamp dt:dt=""r8"">23317048660508</Timestamp><Current dt:dt=""r8"">0</Current><DateUtc dt:dt=""string"">2023-07-06T16:46:52Z</DateUtc></FrequencyChange></FrequencyChanges></Clock>\n",2.0.10.252,2.0.10.356,2.0.10.356,Professional,1.0.0.6
Proc5,,List13,,,,,,,200,3,198,198,2440,3,0,,2,,,,,,,,,,,,,,,,,,,,,,,,,,,,,,,,,,,8,1,8,,,,DelayDiscountingTitrated,07-06-2023,12:46:52,7/6/2023 4:46:52 PM,3003,1,18,DelayDiscountingTitrated-3003-1,-326800665,1,60.017,"<?xml version=""1.0""?>\n<Clock xmlns:dt=""urn:schemas-microsoft-com:datatypes""><Description dt:dt=""string"">E-Prime Primary Realtime Clock</Description><StartTime><Timestamp dt:dt=""int"">0</Timestamp><DateUtc dt:dt=""string"">2023-07-06T16:46:52Z</DateUtc></StartTime><FrequencyChanges><FrequencyChange><Frequency dt:dt=""r8"">10000000</Frequency><Timestamp dt:dt=""r8"">23317048660508</Timestamp><Current dt:dt=""r8"">0</Current><DateUtc dt:dt=""string"">2023-07-06T16:46:52Z</DateUtc></FrequencyChange></FrequencyChanges></Clock>\n",2.0.10.252,2.0.10.356,2.0.10.356,Professional,1.0.0.6
Proc5,,List13,,,,,,,199,1,200,200,1749,1,0,,1,,,,,,,,,,,,,,,,,,,,,,,,,,,,,,,,,,,9,1,9,,,,DelayDiscountingTitrated,07-06-2023,12:46:52,7/6/2023 4:46:52 PM,3003,1,18,DelayDiscountingTitrated-3003-1,-326800665,1,60.017,"<?xml version=""1.0""?>\n<Clock xmlns:dt=""urn:schemas-microsoft-com:datatypes""><Description dt:dt=""string"">E-Prime Primary Realtime Clock</Description><StartTime><Timestamp dt:dt=""int"">0</Timestamp><DateUtc dt:dt=""string"">2023-07-06T16:46:52Z</DateUtc></StartTime><FrequencyChanges><FrequencyChange><Frequency dt:dt=""r8"">10000000</Frequency><Timestamp dt:dt=""r8"">23317048660508</Timestamp><Current dt:dt=""r8"">0</Current><DateUtc dt:dt=""string"">2023-07-06T16:46:52Z</DateUtc></FrequencyChange></FrequencyChanges></Clock>\n",2.0.10.252,2.0.10.356,2.0.10.356,Professional,1.0.0.6
Proc5,,List13,,,,,,,199,1,200,199,1630,1,0,,,,,,,,,,,,,,,,,,,,,,,,,,,,,,,,,,,,,10,1,10,,,,DelayDiscountingTitrated,07-06-2023,12:46:52,7/6/2023 4:46:52 PM,3003,1,18,DelayDiscountingTitrated-3003-1,-326800665,1,60.017,"<?xml version=""1.0""?>\n<Clock xmlns:dt=""urn:schemas-microsoft-com:datatypes""><Description dt:dt=""string"">E-Prime Primary Realtime Clock</Description><StartTime><Timestamp dt:dt=""int"">0</Timestamp><DateUtc dt:dt=""string"">2023-07-06T16:46:52Z</DateUtc></StartTime><FrequencyChanges><FrequencyChange><Frequency dt:dt=""r8"">10000000</Frequency><Timestamp dt:dt=""r8"">23317048660508</Timestamp><Current dt:dt=""r8"">0</Current><DateUtc dt:dt=""string"">2023-07-06T16:46:52Z</DateUtc></FrequencyChange></FrequencyChanges></Clock>\n",2.0.10.252,2.0.10.356,2.0.10.356,Professional,1.0.0.6
discount5,,List8,,,,,,,,,,,,,,,,500,15 years,5475,,,,,,,,,,,,,,,,,,,,,,,,,,,,,,,,,,,2,2,1,DelayDiscountingTitrated,07-06-2023,12:46:52,7/6/2023 4:46:52 PM,3003,1,18,DelayDiscountingTitrated-3003-1,-326800665,1,60.017,"<?xml version=""1.0""?>\n<Clock xmlns:dt=""urn:schemas-microsoft-com:datatypes""><Description dt:dt=""string"">E-Prime Primary Realtime Clock</Description><StartTime><Timestamp dt:dt=""int"">0</Timestamp><DateUtc dt:dt=""string"">2023-07-06T16:46:52Z</DateUtc></StartTime><FrequencyChanges><FrequencyChange><Frequency dt:dt=""r8"">10000000</Frequency><Timestamp dt:dt=""r8"">23317048660508</Timestamp><Current dt:dt=""r8"">0</Current><DateUtc dt:dt=""string"">2023-07-06T16:46:52Z</DateUtc></FrequencyChange></FrequencyChanges></Clock>\n",2.0.10.252,2.0.10.356,2.0.10.356,Professional,1.0.0.6
fifteenyearproc,,List1,,,,,,,,,,,,,,,,,,,,,,6,1,6,6,,,,,,,,,,,,,,,,,,,,,,,,,,,,,,,DelayDiscountingTitrated,07-06-2023,12:46:52,7/6/2023 4:46:52 PM,3003,1,18,DelayDiscountingTitrated-3003-1,-326800665,1,60.017,"<?xml version=""1.0""?>\n<Clock xmlns:dt=""urn:schemas-microsoft-com:datatypes""><Description dt:dt=""string"">E-Prime Primary Realtime Clock</Description><StartTime><Timestamp dt:dt=""int"">0</Timestamp><DateUtc dt:dt=""string"">2023-07-06T16:46:52Z</DateUtc></StartTime><FrequencyChanges><FrequencyChange><Frequency dt:dt=""r8"">10000000</Frequency><Timestamp dt:dt=""r8"">23317048660508</Timestamp><Current dt:dt=""r8"">0</Current><DateUtc dt:dt=""string"">2023-07-06T16:46:52Z</DateUtc></FrequencyChange></FrequencyChanges></Clock>\n",2.0.10.252,2.0.10.356,2.0.10.356,Professional,1.0.0.6
,,,,,,,,,,,,,,,,,,,,,,,,,,,,,,,,,,,,,,,,,,,,,,,,,,,,,,,,,,DelayDiscountingTitrated,07-06-2023,12:46:52,7/6/2023 4:46:52 PM,3003,1,18,DelayDiscountingTitrated-3003-1,-326800665,1,60.017,"<?xml version=""1.0""?>\n<Clock xmlns:dt=""urn:schemas-microsoft-com:datatypes""><Description dt:dt=""string"">E-Prime Primary Realtime Clock</Description><StartTime><Timestamp dt:dt=""int"">0</Timestamp><DateUtc dt:dt=""string"">2023-07-06T16:46:52Z</DateUtc></StartTime><FrequencyChanges><FrequencyChange><Frequency dt:dt=""r8"">10000000</Frequency><Timestamp dt:dt=""r8"">23317048660508</Timestamp><Current dt:dt=""r8"">0</Current><DateUtc dt:dt=""string"">2023-07-06T16:46:52Z</DateUtc></FrequencyChange></FrequencyChanges></Clock>\n",2.0.10.252,2.0.10.356,2.0.10.356,Professional,1.0.0.6
