Procedure,List9,Running,List9.Cycle,List9.Sample,Slide2.DEVICE,Slide2.RT,Slide2.RESP,Slide4.RT,Slide4.RESP,immed3,respprev,prevalue,imstring,Slide1.DEVICE,Slide1.RT,Slide1.RESP,Slide5.RT,Slide5.RESP,immed5,immed,delaypd,timedays,List4,List4.Cycle,List4.Sample,List1,List1.Cycle,List1.Sample,roundnumber,TextDisplay11.DEVICE,List2,List2.Cycle,List2.Sample,List3,List3.Cycle,List3.Sample,List10,List10.Cycle,List10.Sample,List5,List5.Cycle,List5.Sample,List11,List11.Cycle,List11.Sample,List6,List6.Cycle,List6.Sample,List13,List13.Cycle,List13.Sample,List8,List8.Cycle,List8.Sample,List12,List12.Cycle,List12.Sample,List7,List7.Cycle,List7.Sample,Experiment,SessionDate,SessionTime,SessionStartDateTimeUtc,Subject,Session,Age,DataFile.Basename,RandomSeed,Group,Display.RefreshRate,Clock.Information,StudioVersion,RuntimeVersion,RuntimeVersionExpected,RuntimeCapabilities,ExperimentVersion,TextDisplay14.DEVICE,Slide3.DEVICE
Init1,1,List9,1,1,Keyboard,3281,1,0,,100,1,200,,,,,,,,,,,,,,,,,,,,,,,,,,,,,,,,,,,,,,,,,,,,,,,,,DelayDiscountingTitrated,07-21-2024,12:56:16,7/21/2024 4:56:16 PM,2051,1,15,DelayDiscountingTitrated-2051-1,531816907,1,75.008,"<?xml version=""1.0""?>\n<Clock xmlns:dt=""urn:schemas-microsoft-com:datatypes""><Description dt:dt=""string"">E-Prime Primary Realtime Clock</Description><StartTime><Timestamp dt:dt=""int"">0</Timestamp><DateUtc dt:dt=""string"">2024-07-21T16:56:16Z</DateUtc></StartTime><FrequencyChanges><FrequencyChange><Frequency dt:dt=""r8"">10000000</Frequency><Timestamp dt:dt=""r8"">6829526898023</Timestamp><Current dt:dt=""r8"">0</Current><DateUtc dt:dt=""string"">2024-07-21T16:56:16Z</DateUtc></FrequencyChange></FrequencyChanges></Clock>\n",3.0.3.43,3.0.3.60,3.0.3.60,Full,1.0.0.8,Keyboard,Keyboard
Proc1,2,List9,1,2,,,,,,150,3,100,100,Keyboard,5536,3,0,,50,,,,,,,,,,,,,,,,,,,,,,,,,,,,,,,,,,,,,,,,,,DelayDiscountingTitrated,07-21-2024,12:56:16,7/21/2024 4:56:16 PM,2051,1,15,DelayDiscountingTitrated-2051-1,531816907,1,75.008,"<?xml version=""1.0""?>\n<Clock xmlns:dt=""urn:schemas-microsoft-com:datatypes""><Description dt:dt=""string"">E-Prime Primary Realtime Clock</Description><StartTime><Timestamp dt:dt=""int"">0</Timestamp><DateUtc dt:dt=""string"">2024-07-21T16:56:16Z</DateUtc></StartTime><FrequencyChanges><FrequencyChange><Frequency dt:dt=""r8"">10000000</Frequency><Timestamp dt:dt=""r8"">6829526898023</Timestamp><Current dt:dt=""r8"">0</Current><DateUtc dt:dt=""string"">2024-07-21T16:56:16Z</DateUtc></FrequencyChange></FrequencyChanges></Clock>\n",3.0.3.43,3.0.3.60,3.0.3.60,Full,1.0.0.8,Keyboard,Keyboard
Proc1,3,List9,1,3,,,,,,175,3,150,150,Keyboard,2705,3,0,,25,,,,,,,,,,,,,,,,,,,,,,,,,,,,,,,,,,,,,,,,,,DelayDiscountingTitrated,07-21-2024,12:56:16,7/21/2024 4:56:16 PM,2051,1,15,DelayDiscountingTitrated-2051-1,531816907,1,75.008,"<?xml version=""1.0""?>\n<Clock xmlns:dt=""urn:schemas-microsoft-com:datatypes""><Description dt:dt=""string"">E-Prime Primary Realtime Clock</Description><StartTime><Timestamp dt:dt=""int"">0</Timestamp><DateUtc dt:dt=""string"">2024-07-21T16:56:16Z</DateUtc></StartTime><FrequencyChanges><FrequencyChange><Frequency dt:dt=""r8"">10000000</Frequency><Timestamp dt:dt=""r8"">6829526898023</Timestamp><Current dt:dt=""r8"">0</Current><DateUtc dt:dt=""string"">2024-07-21T16:56:16Z</DateUtc></FrequencyChange></FrequencyChanges></Clock>\n",3.0.3.43,3.0.3.60,3.0.3.60,Full,1.0.0.8,Keyboard,Keyboard
Proc1,4,List9,1,4,,,,,,187,3,175,175,Keyboard,1184,3,0,,12,,,,,,,,,,,,,,,,,,,,,,,,,,,,,,,,,,,,,,,,,,DelayDiscountingTitrated,07-21-2024,12:56:16,7/21/2024 4:56:16 PM,2051,1,15,DelayDiscountingTitrated-2051-1,531816907,1,75.008,"<?xml version=""1.0""?>\n<Clock xmlns:dt=""urn:schemas-microsoft-com:datatypes""><Description dt:dt=""string"">E-Prime Primary Realtime Clock</Description><StartTime><Timestamp dt:dt=""int"">0</Timestamp><DateUtc dt:dt=""string"">2024-07-21T16:56:16Z</DateUtc></StartTime><FrequencyChanges><FrequencyChange><Frequency dt:dt=""r8"">10000000</Frequency><Timestamp dt:dt=""r8"">6829526898023</Timestamp><Current dt:dt=""r8"">0</Current><DateUtc dt:dt=""string"">2024-07-21T16:56:16Z</DateUtc></FrequencyChange></FrequencyChanges></Clock>\n",3.0.3.43,3.0.3.60,3.0.3.60,Full,1.0.0.8,Keyboard,Keyboard
Proc1,5,List9,1,5,,,,,,193,3,187,187,Keyboard,1898,3,0,,6,,,,,,,,,,,,,,,,,,,,,,,,,,,,,,,,,,,,,,,,,,DelayDiscountingTitrated,07-21-2024,12:56:16,7/21/2024 4:56:16 PM,2051,1,15,DelayDiscountingTitrated-2051-1,531816907,1,75.008,"<?xml version=""1.0""?>\n<Clock xmlns:dt=""urn:schemas-microsoft-com:datatypes""><Description dt:dt=""string"">E-Prime Primary Realtime Clock</Description><StartTime><Timestamp dt:dt=""int"">0</Timestamp><DateUtc dt:dt=""string"">2024-07-21T16:56:16Z</DateUtc></StartTime><FrequencyChanges><FrequencyChange><Frequency dt:dt=""r8"">10000000</Frequency><Timestamp dt:dt=""r8"">6829526898023</Timestamp><Current dt:dt=""r8"">0</Current><DateUtc dt:dt=""string"">2024-07-21T16:56:16Z</DateUtc></FrequencyChange></FrequencyChanges></Clock>\n",3.0.3.43,3.0.3.60,3.0.3.60,Full,1.0.0.8,Keyboard,Keyboard
Proc1,6,List9,1,6,,,,,,196,3,193,193,Keyboard,3107,3,0,,3,,,,,,,,,,,,,,,,,,,,,,,,,,,,,,,,,,,,,,,,,,DelayDiscountingTitrated,07-21-2024,12:56:16,7/21/2024 4:56:16 PM,2051,1,15,DelayDiscountingTitrated-2051-1,531816907,1,75.008,"<?xml version=""1.0""?>\n<Clock xmlns:dt=""urn:schemas-microsoft-com:datatypes""><Description dt:dt=""string"">E-Prime Primary Realtime Clock</Description><StartTime><Timestamp dt:dt=""int"">0</Timestamp><DateUtc dt:dt=""string"">2024-07-21T16:56:16Z</DateUtc></StartTime><FrequencyChanges><FrequencyChange><Frequency dt:dt=""r8"">10000000</Frequency><Timestamp dt:dt=""r8"">6829526898023</Timestamp><Current dt:dt=""r8"">0</Current><DateUtc dt:dt=""string"">2024-07-21T16:56:16Z</DateUtc></FrequencyChange></FrequencyChanges></Clock>\n",3.0.3.43,3.0.3.60,3.0.3.60,Full,1.0.0.8,Keyboard,Keyboard
Proc1,7,List9,1,7,,,,,,198,3,196,196,Keyboard,1309,3,0,,2,,,,,,,,,,,,,,,,,,,,,,,,,,,,,,,,,,,,,,,,,,DelayDiscountingTitrated,07-21-2024,12:56:16,7/21/2024 4:56:16 PM,2051,1,15,DelayDiscountingTitrated-2051-1,531816907,1,75.008,"<?xml version=""1.0""?>\n<Clock xmlns:dt=""urn:schemas-microsoft-com:datatypes""><Description dt:dt=""string"">E-Prime Primary Realtime Clock</Description><StartTime><Timestamp dt:dt=""int"">0</Timestamp><DateUtc dt:dt=""string"">2024-07-21T16:56:16Z</DateUtc></StartTime><FrequencyChanges><FrequencyChange><Frequency dt:dt=""r8"">10000000</Frequency><Timestamp dt:dt=""r8"">6829526898023</Timestamp><Current dt:dt=""r8"">0</Current><DateUtc dt:dt=""string"">2024-07-21T16:56:16Z</DateUtc></FrequencyChange></FrequencyChanges></Clock>\n",3.0.3.43,3.0.3.60,3.0.3.60,Full,1.0.0.8,Keyboard,Keyboard
Proc1,8,List9,1,8,,,,,,199,3,198,198,Keyboard,858,3,0,,1,,,,,,,,,,,,,,,,,,,,,,,,,,,,,,,,,,,,,,,,,,DelayDiscountingTitrated,07-21-2024,12:56:16,7/21/2024 4:56:16 PM,2051,1,15,DelayDiscountingTitrated-2051-1,531816907,1,75.008,"<?xml version=""1.0""?>\n<Clock xmlns:dt=""urn:schemas-microsoft-com:datatypes""><Description dt:dt=""string"">E-Prime Primary Realtime Clock</Description><StartTime><Timestamp dt:dt=""int"">0</Timestamp><DateUtc dt:dt=""string"">2024-07-21T16:56:16Z</DateUtc></StartTime><FrequencyChanges><FrequencyChange><Frequency dt:dt=""r8"">10000000</Frequency><Timestamp dt:dt=""r8"">6829526898023</Timestamp><Current dt:dt=""r8"">0</Current><DateUtc dt:dt=""string"">2024-07-21T16:56:16Z</DateUtc></FrequencyChange></FrequencyChanges></Clock>\n",3.0.3.43,3.0.3.60,3.0.3.60,Full,1.0.0.8,Keyboard,Keyboard
Proc1,9,List9,1,9,,,,,,199,3,198,199,Keyboard,898,3,0,,,,,,,,,,,,,,,,,,,,,,,,,,,,,,,,,,,,,,,,,,,,DelayDiscountingTitrated,07-21-2024,12:56:16,7/21/2024 4:56:16 PM,2051,1,15,DelayDiscountingTitrated-2051-1,531816907,1,75.008,"<?xml version=""1.0""?>\n<Clock xmlns:dt=""urn:schemas-microsoft-com:datatypes""><Description dt:dt=""string"">E-Prime Primary Realtime Clock</Description><StartTime><Timestamp dt:dt=""int"">0</Timestamp><DateUtc dt:dt=""string"">2024-07-21T16:56:16Z</DateUtc></StartTime><FrequencyChanges><FrequencyChange><Frequency dt:dt=""r8"">10000000</Frequency><Timestamp dt:dt=""r8"">6829526898023</Timestamp><Current dt:dt=""r8"">0</Current><DateUtc dt:dt=""string"">2024-07-21T16:56:16Z</DateUtc></FrequencyChange></FrequencyChanges></Clock>\n",3.0.3.43,3.0.3.60,3.0.3.60,Full,1.0.0.8,Keyboard,Keyboard
discount1,,List4,,,,,,,,,,,,,,,,,,200,1 month,30,1,1,1,,,,,,,,,,,,,,,,,,,,,,,,,,,,,,,,,,,,DelayDiscountingTitrated,07-21-2024,12:56:16,7/21/2024 4:56:16 PM,2051,1,15,DelayDiscountingTitrated-2051-1,531816907,1,75.008,"<?xml version=""1.0""?>\n<Clock xmlns:dt=""urn:schemas-microsoft-com:datatypes""><Description dt:dt=""string"">E-Prime Primary Realtime Clock</Description><StartTime><Timestamp dt:dt=""int"">0</Timestamp><DateUtc dt:dt=""string"">2024-07-21T16:56:16Z</DateUtc></StartTime><FrequencyChanges><FrequencyChange><Frequency dt:dt=""r8"">10000000</Frequency><Timestamp dt:dt=""r8"">6829526898023</Timestamp><Current dt:dt=""r8"">0</Current><DateUtc dt:dt=""string"">2024-07-21T16:56:16Z</DateUtc></FrequencyChange></FrequencyChanges></Clock>\n",3.0.3.43,3.0.3.60,3.0.3.60,Full,1.0.0.8,Keyboard,Keyboard
onemthproc,,List1,,,,,,,,,,,,,,,,,,,,,,,,2,1,1,1,Keyboard,,,,,,,,,,,,,,,,,,,,,,,,,,,,,,,DelayDiscountingTitrated,07-21-2024,12:56:16,7/21/2024 4:56:16 PM,2051,1,15,DelayDiscountingTitrated-2051-1,531816907,1,75.008,"<?xml version=""1.0""?>\n<Clock xmlns:dt=""urn:schemas-microsoft-com:datatypes""><Description dt:dt=""string"">E-Prime Primary Realtime Clock</Description><StartTime><Timestamp dt:dt=""int"">0</Timestamp><DateUtc dt:dt=""string"">2024-07-21T16:56:16Z</DateUtc></StartTime><FrequencyChanges><FrequencyChange><Frequency dt:dt=""r8"">10000000</Frequency><Timestamp dt:dt=""r8"">6829526898023</Timestamp><Current dt:dt=""r8"">0</Current><DateUtc dt:dt=""string"">2024-07-21T16:56:16Z</DateUtc></FrequencyChange></FrequencyChanges></Clock>\n",3.0.3.43,3.0.3.60,3.0.3.60,Full,1.0.0.8,Keyboard,Keyboard
TrialProcInit,,List2,,,Keyboard,4071,3,0,,900,3,800,,,,,,,,,,,,,,,,,,,1,1,1,,,,,,,,,,,,,,,,,,,,,,,,,,,,DelayDiscountingTitrated,07-21-2024,12:56:16,7/21/2024 4:56:16 PM,2051,1,15,DelayDiscountingTitrated-2051-1,531816907,1,75.008,"<?xml version=""1.0""?>\n<Clock xmlns:dt=""urn:schemas-microsoft-com:datatypes""><Description dt:dt=""string"">E-Prime Primary Realtime Clock</Description><StartTime><Timestamp dt:dt=""int"">0</Timestamp><DateUtc dt:dt=""string"">2024-07-21T16:56:16Z</DateUtc></StartTime><FrequencyChanges><FrequencyChange><Frequency dt:dt=""r8"">10000000</Frequency><Timestamp dt:dt=""r8"">6829526898023</Timestamp><Current dt:dt=""r8"">0</Current><DateUtc dt:dt=""string"">2024-07-21T16:56:16Z</DateUtc></FrequencyChange></FrequencyChanges></Clock>\n",3.0.3.43,3.0.3.60,3.0.3.60,Full,1.0.0.8,Keyboard,Keyboard
TrialProc,,List2,,,,,,,,950,3,900,900,Keyboard,2864,3,0,,50,,,,,,,,,,,,2,1,2,,,,,,,,,,,,,,,,,,,,,,,,,,,,DelayDiscountingTitrated,07-21-2024,12:56:16,7/21/2024 4:56:16 PM,2051,1,15,DelayDiscountingTitrated-2051-1,531816907,1,75.008,"<?xml version=""1.0""?>\n<Clock xmlns:dt=""urn:schemas-microsoft-com:datatypes""><Description dt:dt=""string"">E-Prime Primary Realtime Clock</Description><StartTime><Timestamp dt:dt=""int"">0</Timestamp><DateUtc dt:dt=""string"">2024-07-21T16:56:16Z</DateUtc></StartTime><FrequencyChanges><FrequencyChange><Frequency dt:dt=""r8"">10000000</Frequency><Timestamp dt:dt=""r8"">6829526898023</Timestamp><Current dt:dt=""r8"">0</Current><DateUtc dt:dt=""string"">2024-07-21T16:56:16Z</DateUtc></FrequencyChange></FrequencyChanges></Clock>\n",3.0.3.43,3.0.3.60,3.0.3.60,Full,1.0.0.8,Keyboard,Keyboard
TrialProc,,List2,,,,,,,,975,3,950,950,Keyboard,2672,3,0,,25,,,,,,,,,,,,3,1,3,,,,,,,,,,,,,,,,,,,,,,,,,,,,DelayDiscountingTitrated,07-21-2024,12:56:16,7/21/2024 4:56:16 PM,2051,1,15,DelayDiscountingTitrated-2051-1,531816907,1,75.008,"<?xml version=""1.0""?>\n<Clock xmlns:dt=""urn:schemas-microsoft-com:datatypes""><Description dt:dt=""string"">E-Prime Primary Realtime Clock</Description><StartTime><Timestamp dt:dt=""int"">0</Timestamp><DateUtc dt:dt=""string"">2024-07-21T16:56:16Z</DateUtc></StartTime><FrequencyChanges><FrequencyChange><Frequency dt:dt=""r8"">10000000</Frequency><Timestamp dt:dt=""r8"">6829526898023</Timestamp><Current dt:dt=""r8"">0</Current><DateUtc dt:dt=""string"">2024-07-21T16:56:16Z</DateUtc></FrequencyChange></FrequencyChanges></Clock>\n",3.0.3.43,3.0.3.60,3.0.3.60,Full,1.0.0.8,Keyboard,Keyboard
TrialProc,,List2,,,,,,,,987,3,975,975,Keyboard,2968,3,0,,12,,,,,,,,,,,,4,1,4,,,,,,,,,,,,,,,,,,,,,,,,,,,,DelayDiscountingTitrated,07-21-2024,12:56:16,7/21/2024 4:56:16 PM,2051,1,15,DelayDiscountingTitrated-2051-1,531816907,1,75.008,"<?xml version=""1.0""?>\n<Clock xmlns:dt=""urn:schemas-microsoft-com:datatypes""><Description dt:dt=""string"">E-Prime Primary Realtime Clock</Description><StartTime><Timestamp dt:dt=""int"">0</Timestamp><DateUtc dt:dt=""string"">2024-07-21T16:56:16Z</DateUtc></StartTime><FrequencyChanges><FrequencyChange><Frequency dt:dt=""r8"">10000000</Frequency><Timestamp dt:dt=""r8"">6829526898023</Timestamp><Current dt:dt=""r8"">0</Current><DateUtc dt:dt=""string"">2024-07-21T16:56:16Z</DateUtc></FrequencyChange></FrequencyChanges></Clock>\n",3.0.3.43,3.0.3.60,3.0.3.60,Full,1.0.0.8,Keyboard,Keyboard
TrialProc,,List2,,,,,,,,993,3,987,987,Keyboard,4961,3,0,,6,,,,,,,,,,,,5,1,5,,,,,,,,,,,,,,,,,,,,,,,,,,,,DelayDiscountingTitrated,07-21-2024,12:56:16,7/21/2024 4:56:16 PM,2051,1,15,DelayDiscountingTitrated-2051-1,531816907,1,75.008,"<?xml version=""1.0""?>\n<Clock xmlns:dt=""urn:schemas-microsoft-com:datatypes""><Description dt:dt=""string"">E-Prime Primary Realtime Clock</Description><StartTime><Timestamp dt:dt=""int"">0</Timestamp><DateUtc dt:dt=""string"">2024-07-21T16:56:16Z</DateUtc></StartTime><FrequencyChanges><FrequencyChange><Frequency dt:dt=""r8"">10000000</Frequency><Timestamp dt:dt=""r8"">6829526898023</Timestamp><Current dt:dt=""r8"">0</Current><DateUtc dt:dt=""string"">2024-07-21T16:56:16Z</DateUtc></FrequencyChange></FrequencyChanges></Clock>\n",3.0.3.43,3.0.3.60,3.0.3.60,Full,1.0.0.8,Keyboard,Keyboard
TrialProc,,List2,,,,,,,,997,3,993,993,Keyboard,965,3,0,,4,,,,,,,,,,,,6,1,6,,,,,,,,,,,,,,,,,,,,,,,,,,,,DelayDiscountingTitrated,07-21-2024,12:56:16,7/21/2024 4:56:16 PM,2051,1,15,DelayDiscountingTitrated-2051-1,531816907,1,75.008,"<?xml version=""1.0""?>\n<Clock xmlns:dt=""urn:schemas-microsoft-com:datatypes""><Description dt:dt=""string"">E-Prime Primary Realtime Clock</Description><StartTime><Timestamp dt:dt=""int"">0</Timestamp><DateUtc dt:dt=""string"">2024-07-21T16:56:16Z</DateUtc></StartTime><FrequencyChanges><FrequencyChange><Frequency dt:dt=""r8"">10000000</Frequency><Timestamp dt:dt=""r8"">6829526898023</Timestamp><Current dt:dt=""r8"">0</Current><DateUtc dt:dt=""string"">2024-07-21T16:56:16Z</DateUtc></FrequencyChange></FrequencyChanges></Clock>\n",3.0.3.43,3.0.3.60,3.0.3.60,Full,1.0.0.8,Keyboard,Keyboard
TrialProc,,List2,,,,,,,,999,3,997,997,Keyboard,753,3,0,,2,,,,,,,,,,,,7,1,7,,,,,,,,,,,,,,,,,,,,,,,,,,,,DelayDiscountingTitrated,07-21-2024,12:56:16,7/21/2024 4:56:16 PM,2051,1,15,DelayDiscountingTitrated-2051-1,531816907,1,75.008,"<?xml version=""1.0""?>\n<Clock xmlns:dt=""urn:schemas-microsoft-com:datatypes""><Description dt:dt=""string"">E-Prime Primary Realtime Clock</Description><StartTime><Timestamp dt:dt=""int"">0</Timestamp><DateUtc dt:dt=""string"">2024-07-21T16:56:16Z</DateUtc></StartTime><FrequencyChanges><FrequencyChange><Frequency dt:dt=""r8"">10000000</Frequency><Timestamp dt:dt=""r8"">6829526898023</Timestamp><Current dt:dt=""r8"">0</Current><DateUtc dt:dt=""string"">2024-07-21T16:56:16Z</DateUtc></FrequencyChange></FrequencyChanges></Clock>\n",3.0.3.43,3.0.3.60,3.0.3.60,Full,1.0.0.8,Keyboard,Keyboard
TrialProc,,List2,,,,,,,,999,3,,999,Keyboard,957,3,0,,,,,,,,,,,,,,8,1,8,,,,,,,,,,,,,,,,,,,,,,,,,,,,DelayDiscountingTitrated,07-21-2024,12:56:16,7/21/2024 4:56:16 PM,2051,1,15,DelayDiscountingTitrated-2051-1,531816907,1,75.008,"<?xml version=""1.0""?>\n<Clock xmlns:dt=""urn:schemas-microsoft-com:datatypes""><Description dt:dt=""string"">E-Prime Primary Realtime Clock</Description><StartTime><Timestamp dt:dt=""int"">0</Timestamp><DateUtc dt:dt=""string"">2024-07-21T16:56:16Z</DateUtc></StartTime><FrequencyChanges><FrequencyChange><Frequency dt:dt=""r8"">10000000</Frequency><Timestamp dt:dt=""r8"">6829526898023</Timestamp><Current dt:dt=""r8"">0</Current><DateUtc dt:dt=""string"">2024-07-21T16:56:16Z</DateUtc></FrequencyChange></FrequencyChanges></Clock>\n",3.0.3.43,3.0.3.60,3.0.3.60,Full,1.0.0.8,Keyboard,Keyboard
discount,,List3,,,,,,,,,,,,,,,,,,800,1 week,7,,,,,,,,,,,,3,1,1,,,,,,,,,,,,,,,,,,,,,,,,,DelayDiscountingTitrated,07-21-2024,12:56:16,7/21/2024 4:56:16 PM,2051,1,15,DelayDiscountingTitrated-2051-1,531816907,1,75.008,"<?xml version=""1.0""?>\n<Clock xmlns:dt=""urn:schemas-microsoft-com:datatypes""><Description dt:dt=""string"">E-Prime Primary Realtime Clock</Description><StartTime><Timestamp dt:dt=""int"">0</Timestamp><DateUtc dt:dt=""string"">2024-07-21T16:56:16Z</DateUtc></StartTime><FrequencyChanges><FrequencyChange><Frequency dt:dt=""r8"">10000000</Frequency><Timestamp dt:dt=""r8"">6829526898023</Timestamp><Current dt:dt=""r8"">0</Current><DateUtc dt:dt=""string"">2024-07-21T16:56:16Z</DateUtc></FrequencyChange></FrequencyChanges></Clock>\n",3.0.3.43,3.0.3.60,3.0.3.60,Full,1.0.0.8,Keyboard,Keyboard
onewkproc,,List1,,,,,,,,,,,,,,,,,,,,,,,,1,1,2,2,Keyboard,,,,,,,,,,,,,,,,,,,,,,,,,,,,,,,DelayDiscountingTitrated,07-21-2024,12:56:16,7/21/2024 4:56:16 PM,2051,1,15,DelayDiscountingTitrated-2051-1,531816907,1,75.008,"<?xml version=""1.0""?>\n<Clock xmlns:dt=""urn:schemas-microsoft-com:datatypes""><Description dt:dt=""string"">E-Prime Primary Realtime Clock</Description><StartTime><Timestamp dt:dt=""int"">0</Timestamp><DateUtc dt:dt=""string"">2024-07-21T16:56:16Z</DateUtc></StartTime><FrequencyChanges><FrequencyChange><Frequency dt:dt=""r8"">10000000</Frequency><Timestamp dt:dt=""r8"">6829526898023</Timestamp><Current dt:dt=""r8"">0</Current><DateUtc dt:dt=""string"">2024-07-21T16:56:16Z</DateUtc></FrequencyChange></FrequencyChanges></Clock>\n",3.0.3.43,3.0.3.60,3.0.3.60,Full,1.0.0.8,Keyboard,Keyboard
Init2,,List10,,,Keyboard,2735,1,0,,250,1,500,,,,,,,,,,,,,,,,,,,,,,,,,1,1,1,,,,,,,,,,,,,,,,,,,,,,DelayDiscountingTitrated,07-21-2024,12:56:16,7/21/2024 4:56:16 PM,2051,1,15,DelayDiscountingTitrated-2051-1,531816907,1,75.008,"<?xml version=""1.0""?>\n<Clock xmlns:dt=""urn:schemas-microsoft-com:datatypes""><Description dt:dt=""string"">E-Prime Primary Realtime Clock</Description><StartTime><Timestamp dt:dt=""int"">0</Timestamp><DateUtc dt:dt=""string"">2024-07-21T16:56:16Z</DateUtc></StartTime><FrequencyChanges><FrequencyChange><Frequency dt:dt=""r8"">10000000</Frequency><Timestamp dt:dt=""r8"">6829526898023</Timestamp><Current dt:dt=""r8"">0</Current><DateUtc dt:dt=""string"">2024-07-21T16:56:16Z</DateUtc></FrequencyChange></FrequencyChanges></Clock>\n",3.0.3.43,3.0.3.60,3.0.3.60,Full,1.0.0.8,Keyboard,Keyboard
Proc2,,List10,,,,,,,,125,1,250,250,Keyboard,2628,1,0,,125,,,,,,,,,,,,,,,,,,2,1,2,,,,,,,,,,,,,,,,,,,,,,DelayDiscountingTitrated,07-21-2024,12:56:16,7/21/2024 4:56:16 PM,2051,1,15,DelayDiscountingTitrated-2051-1,531816907,1,75.008,"<?xml version=""1.0""?>\n<Clock xmlns:dt=""urn:schemas-microsoft-com:datatypes""><Description dt:dt=""string"">E-Prime Primary Realtime Clock</Description><StartTime><Timestamp dt:dt=""int"">0</Timestamp><DateUtc dt:dt=""string"">2024-07-21T16:56:16Z</DateUtc></StartTime><FrequencyChanges><FrequencyChange><Frequency dt:dt=""r8"">10000000</Frequency><Timestamp dt:dt=""r8"">6829526898023</Timestamp><Current dt:dt=""r8"">0</Current><DateUtc dt:dt=""string"">2024-07-21T16:56:16Z</DateUtc></FrequencyChange></FrequencyChanges></Clock>\n",3.0.3.43,3.0.3.60,3.0.3.60,Full,1.0.0.8,Keyboard,Keyboard
Proc2,,List10,,,,,,,,63,1,125,125,Keyboard,4356,1,0,,62,,,,,,,,,,,,,,,,,,3,1,3,,,,,,,,,,,,,,,,,,,,,,DelayDiscountingTitrated,07-21-2024,12:56:16,7/21/2024 4:56:16 PM,2051,1,15,DelayDiscountingTitrated-2051-1,531816907,1,75.008,"<?xml version=""1.0""?>\n<Clock xmlns:dt=""urn:schemas-microsoft-com:datatypes""><Description dt:dt=""string"">E-Prime Primary Realtime Clock</Description><StartTime><Timestamp dt:dt=""int"">0</Timestamp><DateUtc dt:dt=""string"">2024-07-21T16:56:16Z</DateUtc></StartTime><FrequencyChanges><FrequencyChange><Frequency dt:dt=""r8"">10000000</Frequency><Timestamp dt:dt=""r8"">6829526898023</Timestamp><Current dt:dt=""r8"">0</Current><DateUtc dt:dt=""string"">2024-07-21T16:56:16Z</DateUtc></FrequencyChange></FrequencyChanges></Clock>\n",3.0.3.43,3.0.3.60,3.0.3.60,Full,1.0.0.8,Keyboard,Keyboard
Proc2,,List10,,,,,,,,94,3,63,63,Keyboard,2472,3,0,,31,,,,,,,,,,,,,,,,,,4,1,4,,,,,,,,,,,,,,,,,,,,,,DelayDiscountingTitrated,07-21-2024,12:56:16,7/21/2024 4:56:16 PM,2051,1,15,DelayDiscountingTitrated-2051-1,531816907,1,75.008,"<?xml version=""1.0""?>\n<Clock xmlns:dt=""urn:schemas-microsoft-com:datatypes""><Description dt:dt=""string"">E-Prime Primary Realtime Clock</Description><StartTime><Timestamp dt:dt=""int"">0</Timestamp><DateUtc dt:dt=""string"">2024-07-21T16:56:16Z</DateUtc></StartTime><FrequencyChanges><FrequencyChange><Frequency dt:dt=""r8"">10000000</Frequency><Timestamp dt:dt=""r8"">6829526898023</Timestamp><Current dt:dt=""r8"">0</Current><DateUtc dt:dt=""string"">2024-07-21T16:56:16Z</DateUtc></FrequencyChange></FrequencyChanges></Clock>\n",3.0.3.43,3.0.3.60,3.0.3.60,Full,1.0.0.8,Keyboard,Keyboard
Proc2,,List10,,,,,,,,110,3,94,94,Keyboard,1410,3,0,,16,,,,,,,,,,,,,,,,,,5,1,5,,,,,,,,,,,,,,,,,,,,,,DelayDiscountingTitrated,07-21-2024,12:56:16,7/21/2024 4:56:16 PM,2051,1,15,DelayDiscountingTitrated-2051-1,531816907,1,75.008,"<?xml version=""1.0""?>\n<Clock xmlns:dt=""urn:schemas-microsoft-com:datatypes""><Description dt:dt=""string"">E-Prime Primary Realtime Clock</Description><StartTime><Timestamp dt:dt=""int"">0</Timestamp><DateUtc dt:dt=""string"">2024-07-21T16:56:16Z</DateUtc></StartTime><FrequencyChanges><FrequencyChange><Frequency dt:dt=""r8"">10000000</Frequency><Timestamp dt:dt=""r8"">6829526898023</Timestamp><Current dt:dt=""r8"">0</Current><DateUtc dt:dt=""string"">2024-07-21T16:56:16Z</DateUtc></FrequencyChange></FrequencyChanges></Clock>\n",3.0.3.43,3.0.3.60,3.0.3.60,Full,1.0.0.8,Keyboard,Keyboard
Proc2,,List10,,,,,,,,118,3,110,110,Keyboard,1173,3,0,,8,,,,,,,,,,,,,,,,,,6,1,6,,,,,,,,,,,,,,,,,,,,,,DelayDiscountingTitrated,07-21-2024,12:56:16,7/21/2024 4:56:16 PM,2051,1,15,DelayDiscountingTitrated-2051-1,531816907,1,75.008,"<?xml version=""1.0""?>\n<Clock xmlns:dt=""urn:schemas-microsoft-com:datatypes""><Description dt:dt=""string"">E-Prime Primary Realtime Clock</Description><StartTime><Timestamp dt:dt=""int"">0</Timestamp><DateUtc dt:dt=""string"">2024-07-21T16:56:16Z</DateUtc></StartTime><FrequencyChanges><FrequencyChange><Frequency dt:dt=""r8"">10000000</Frequency><Timestamp dt:dt=""r8"">6829526898023</Timestamp><Current dt:dt=""r8"">0</Current><DateUtc dt:dt=""string"">2024-07-21T16:56:16Z</DateUtc></FrequencyChange></FrequencyChanges></Clock>\n",3.0.3.43,3.0.3.60,3.0.3.60,Full,1.0.0.8,Keyboard,Keyboard
Proc2,,List10,,,,,,,,122,3,118,118,Keyboard,745,3,0,,4,,,,,,,,,,,,,,,,,,7,1,7,,,,,,,,,,,,,,,,,,,,,,DelayDiscountingTitrated,07-21-2024,12:56:16,7/21/2024 4:56:16 PM,2051,1,15,DelayDiscountingTitrated-2051-1,531816907,1,75.008,"<?xml version=""1.0""?>\n<Clock xmlns:dt=""urn:schemas-microsoft-com:datatypes""><Description dt:dt=""string"">E-Prime Primary Realtime Clock</Description><StartTime><Timestamp dt:dt=""int"">0</Timestamp><DateUtc dt:dt=""string"">2024-07-21T16:56:16Z</DateUtc></StartTime><FrequencyChanges><FrequencyChange><Frequency dt:dt=""r8"">10000000</Frequency><Timestamp dt:dt=""r8"">6829526898023</Timestamp><Current dt:dt=""r8"">0</Current><DateUtc dt:dt=""string"">2024-07-21T16:56:16Z</DateUtc></FrequencyChange></FrequencyChanges></Clock>\n",3.0.3.43,3.0.3.60,3.0.3.60,Full,1.0.0.8,Keyboard,Keyboard
Proc2,,List10,,,,,,,,124,3,122,122,Keyboard,772,3,0,,2,,,,,,,,,,,,,,,,,,8,1,8,,,,,,,,,,,,,,,,,,,,,,DelayDiscountingTitrated,07-21-2024,12:56:16,7/21/2024 4:56:16 PM,2051,1,15,DelayDiscountingTitrated-2051-1,531816907,1,75.008,"<?xml version=""1.0""?>\n<Clock xmlns:dt=""urn:schemas-microsoft-com:datatypes""><Description dt:dt=""string"">E-Prime Primary Realtime Clock</Description><StartTime><Timestamp dt:dt=""int"">0</Timestamp><DateUtc dt:dt=""string"">2024-07-21T16:56:16Z</DateUtc></StartTime><FrequencyChanges><FrequencyChange><Frequency dt:dt=""r8"">10000000</Frequency><Timestamp dt:dt=""r8"">6829526898023</Timestamp><Current dt:dt=""r8"">0</Current><DateUtc dt:dt=""string"">2024-07-21T16:56:16Z</DateUtc></FrequencyChange></FrequencyChanges></Clock>\n",3.0.3.43,3.0.3.60,3.0.3.60,Full,1.0.0.8,Keyboard,Keyboard
Proc2,,List10,,,,,,,,125,3,124,124,Keyboard,831,3,0,,1,,,,,,,,,,,,,,,,,,9,1,9,,,,,,,,,,,,,,,,,,,,,,DelayDiscountingTitrated,07-21-2024,12:56:16,7/21/2024 4:56:16 PM,2051,1,15,DelayDiscountingTitrated-2051-1,531816907,1,75.008,"<?xml version=""1.0""?>\n<Clock xmlns:dt=""urn:schemas-microsoft-com:datatypes""><Description dt:dt=""string"">E-Prime Primary Realtime Clock</Description><StartTime><Timestamp dt:dt=""int"">0</Timestamp><DateUtc dt:dt=""string"">2024-07-21T16:56:16Z</DateUtc></StartTime><FrequencyChanges><FrequencyChange><Frequency dt:dt=""r8"">10000000</Frequency><Timestamp dt:dt=""r8"">6829526898023</Timestamp><Current dt:dt=""r8"">0</Current><DateUtc dt:dt=""string"">2024-07-21T16:56:16Z</DateUtc></FrequencyChange></FrequencyChanges></Clock>\n",3.0.3.43,3.0.3.60,3.0.3.60,Full,1.0.0.8,Keyboard,Keyboard
Proc2,,List10,,,,,,,,125,3,124,125,Keyboard,848,3,0,,,,,,,,,,,,,,,,,,,,10,1,10,,,,,,,,,,,,,,,,,,,,,,DelayDiscountingTitrated,07-21-2024,12:56:16,7/21/2024 4:56:16 PM,2051,1,15,DelayDiscountingTitrated-2051-1,531816907,1,75.008,"<?xml version=""1.0""?>\n<Clock xmlns:dt=""urn:schemas-microsoft-com:datatypes""><Description dt:dt=""string"">E-Prime Primary Realtime Clock</Description><StartTime><Timestamp dt:dt=""int"">0</Timestamp><DateUtc dt:dt=""string"">2024-07-21T16:56:16Z</DateUtc></StartTime><FrequencyChanges><FrequencyChange><Frequency dt:dt=""r8"">10000000</Frequency><Timestamp dt:dt=""r8"">6829526898023</Timestamp><Current dt:dt=""r8"">0</Current><DateUtc dt:dt=""string"">2024-07-21T16:56:16Z</DateUtc></FrequencyChange></FrequencyChanges></Clock>\n",3.0.3.43,3.0.3.60,3.0.3.60,Full,1.0.0.8,Keyboard,Keyboard
discount2,,List5,,,,,,,,,,,,,,,,,,500,6 month,180,,,,,,,,,,,,,,,,,,2,1,1,,,,,,,,,,,,,,,,,,,DelayDiscountingTitrated,07-21-2024,12:56:16,7/21/2024 4:56:16 PM,2051,1,15,DelayDiscountingTitrated-2051-1,531816907,1,75.008,"<?xml version=""1.0""?>\n<Clock xmlns:dt=""urn:schemas-microsoft-com:datatypes""><Description dt:dt=""string"">E-Prime Primary Realtime Clock</Description><StartTime><Timestamp dt:dt=""int"">0</Timestamp><DateUtc dt:dt=""string"">2024-07-21T16:56:16Z</DateUtc></StartTime><FrequencyChanges><FrequencyChange><Frequency dt:dt=""r8"">10000000</Frequency><Timestamp dt:dt=""r8"">6829526898023</Timestamp><Current dt:dt=""r8"">0</Current><DateUtc dt:dt=""string"">2024-07-21T16:56:16Z</DateUtc></FrequencyChange></FrequencyChanges></Clock>\n",3.0.3.43,3.0.3.60,3.0.3.60,Full,1.0.0.8,Keyboard,Keyboard
sixmthproc,,List1,,,,,,,,,,,,,,,,,,,,,,,,3,1,3,3,Keyboard,,,,,,,,,,,,,,,,,,,,,,,,,,,,,,,DelayDiscountingTitrated,07-21-2024,12:56:16,7/21/2024 4:56:16 PM,2051,1,15,DelayDiscountingTitrated-2051-1,531816907,1,75.008,"<?xml version=""1.0""?>\n<Clock xmlns:dt=""urn:schemas-microsoft-com:datatypes""><Description dt:dt=""string"">E-Prime Primary Realtime Clock</Description><StartTime><Timestamp dt:dt=""int"">0</Timestamp><DateUtc dt:dt=""string"">2024-07-21T16:56:16Z</DateUtc></StartTime><FrequencyChanges><FrequencyChange><Frequency dt:dt=""r8"">10000000</Frequency><Timestamp dt:dt=""r8"">6829526898023</Timestamp><Current dt:dt=""r8"">0</Current><DateUtc dt:dt=""string"">2024-07-21T16:56:16Z</DateUtc></FrequencyChange></FrequencyChanges></Clock>\n",3.0.3.43,3.0.3.60,3.0.3.60,Full,1.0.0.8,Keyboard,Keyboard
Init3,,List11,,,Keyboard,3015,1,0,,400,1,800,,,,,,,,,,,,,,,,,,,,,,,,,,,,,,,1,1,1,,,,,,,,,,,,,,,,DelayDiscountingTitrated,07-21-2024,12:56:16,7/21/2024 4:56:16 PM,2051,1,15,DelayDiscountingTitrated-2051-1,531816907,1,75.008,"<?xml version=""1.0""?>\n<Clock xmlns:dt=""urn:schemas-microsoft-com:datatypes""><Description dt:dt=""string"">E-Prime Primary Realtime Clock</Description><StartTime><Timestamp dt:dt=""int"">0</Timestamp><DateUtc dt:dt=""string"">2024-07-21T16:56:16Z</DateUtc></StartTime><FrequencyChanges><FrequencyChange><Frequency dt:dt=""r8"">10000000</Frequency><Timestamp dt:dt=""r8"">6829526898023</Timestamp><Current dt:dt=""r8"">0</Current><DateUtc dt:dt=""string"">2024-07-21T16:56:16Z</DateUtc></FrequencyChange></FrequencyChanges></Clock>\n",3.0.3.43,3.0.3.60,3.0.3.60,Full,1.0.0.8,Keyboard,Keyboard
Proc3,,List11,,,,,,,,200,1,400,400,Keyboard,1587,1,0,,200,,,,,,,,,,,,,,,,,,,,,,,,2,1,2,,,,,,,,,,,,,,,,DelayDiscountingTitrated,07-21-2024,12:56:16,7/21/2024 4:56:16 PM,2051,1,15,DelayDiscountingTitrated-2051-1,531816907,1,75.008,"<?xml version=""1.0""?>\n<Clock xmlns:dt=""urn:schemas-microsoft-com:datatypes""><Description dt:dt=""string"">E-Prime Primary Realtime Clock</Description><StartTime><Timestamp dt:dt=""int"">0</Timestamp><DateUtc dt:dt=""string"">2024-07-21T16:56:16Z</DateUtc></StartTime><FrequencyChanges><FrequencyChange><Frequency dt:dt=""r8"">10000000</Frequency><Timestamp dt:dt=""r8"">6829526898023</Timestamp><Current dt:dt=""r8"">0</Current><DateUtc dt:dt=""string"">2024-07-21T16:56:16Z</DateUtc></FrequencyChange></FrequencyChanges></Clock>\n",3.0.3.43,3.0.3.60,3.0.3.60,Full,1.0.0.8,Keyboard,Keyboard
Proc3,,List11,,,,,,,,100,1,200,200,Keyboard,1599,1,0,,100,,,,,,,,,,,,,,,,,,,,,,,,3,1,3,,,,,,,,,,,,,,,,DelayDiscountingTitrated,07-21-2024,12:56:16,7/21/2024 4:56:16 PM,2051,1,15,DelayDiscountingTitrated-2051-1,531816907,1,75.008,"<?xml version=""1.0""?>\n<Clock xmlns:dt=""urn:schemas-microsoft-com:datatypes""><Description dt:dt=""string"">E-Prime Primary Realtime Clock</Description><StartTime><Timestamp dt:dt=""int"">0</Timestamp><DateUtc dt:dt=""string"">2024-07-21T16:56:16Z</DateUtc></StartTime><FrequencyChanges><FrequencyChange><Frequency dt:dt=""r8"">10000000</Frequency><Timestamp dt:dt=""r8"">6829526898023</Timestamp><Current dt:dt=""r8"">0</Current><DateUtc dt:dt=""string"">2024-07-21T16:56:16Z</DateUtc></FrequencyChange></FrequencyChanges></Clock>\n",3.0.3.43,3.0.3.60,3.0.3.60,Full,1.0.0.8,Keyboard,Keyboard
Proc3,,List11,,,,,,,,50,1,100,100,Keyboard,2692,1,0,,50,,,,,,,,,,,,,,,,,,,,,,,,4,1,4,,,,,,,,,,,,,,,,DelayDiscountingTitrated,07-21-2024,12:56:16,7/21/2024 4:56:16 PM,2051,1,15,DelayDiscountingTitrated-2051-1,531816907,1,75.008,"<?xml version=""1.0""?>\n<Clock xmlns:dt=""urn:schemas-microsoft-com:datatypes""><Description dt:dt=""string"">E-Prime Primary Realtime Clock</Description><StartTime><Timestamp dt:dt=""int"">0</Timestamp><DateUtc dt:dt=""string"">2024-07-21T16:56:16Z</DateUtc></StartTime><FrequencyChanges><FrequencyChange><Frequency dt:dt=""r8"">10000000</Frequency><Timestamp dt:dt=""r8"">6829526898023</Timestamp><Current dt:dt=""r8"">0</Current><DateUtc dt:dt=""string"">2024-07-21T16:56:16Z</DateUtc></FrequencyChange></FrequencyChanges></Clock>\n",3.0.3.43,3.0.3.60,3.0.3.60,Full,1.0.0.8,Keyboard,Keyboard
Proc3,,List11,,,,,,,,25,1,50,50,Keyboard,2176,1,0,,25,,,,,,,,,,,,,,,,,,,,,,,,5,1,5,,,,,,,,,,,,,,,,DelayDiscountingTitrated,07-21-2024,12:56:16,7/21/2024 4:56:16 PM,2051,1,15,DelayDiscountingTitrated-2051-1,531816907,1,75.008,"<?xml version=""1.0""?>\n<Clock xmlns:dt=""urn:schemas-microsoft-com:datatypes""><Description dt:dt=""string"">E-Prime Primary Realtime Clock</Description><StartTime><Timestamp dt:dt=""int"">0</Timestamp><DateUtc dt:dt=""string"">2024-07-21T16:56:16Z</DateUtc></StartTime><FrequencyChanges><FrequencyChange><Frequency dt:dt=""r8"">10000000</Frequency><Timestamp dt:dt=""r8"">6829526898023</Timestamp><Current dt:dt=""r8"">0</Current><DateUtc dt:dt=""string"">2024-07-21T16:56:16Z</DateUtc></FrequencyChange></FrequencyChanges></Clock>\n",3.0.3.43,3.0.3.60,3.0.3.60,Full,1.0.0.8,Keyboard,Keyboard
Proc3,,List11,,,,,,,,13,1,25,25,Keyboard,832,1,0,,12,,,,,,,,,,,,,,,,,,,,,,,,6,1,6,,,,,,,,,,,,,,,,DelayDiscountingTitrated,07-21-2024,12:56:16,7/21/2024 4:56:16 PM,2051,1,15,DelayDiscountingTitrated-2051-1,531816907,1,75.008,"<?xml version=""1.0""?>\n<Clock xmlns:dt=""urn:schemas-microsoft-com:datatypes""><Description dt:dt=""string"">E-Prime Primary Realtime Clock</Description><StartTime><Timestamp dt:dt=""int"">0</Timestamp><DateUtc dt:dt=""string"">2024-07-21T16:56:16Z</DateUtc></StartTime><FrequencyChanges><FrequencyChange><Frequency dt:dt=""r8"">10000000</Frequency><Timestamp dt:dt=""r8"">6829526898023</Timestamp><Current dt:dt=""r8"">0</Current><DateUtc dt:dt=""string"">2024-07-21T16:56:16Z</DateUtc></FrequencyChange></FrequencyChanges></Clock>\n",3.0.3.43,3.0.3.60,3.0.3.60,Full,1.0.0.8,Keyboard,Keyboard
Proc3,,List11,,,,,,,,7,1,13,13,Keyboard,1239,1,0,,6,,,,,,,,,,,,,,,,,,,,,,,,7,1,7,,,,,,,,,,,,,,,,DelayDiscountingTitrated,07-21-2024,12:56:16,7/21/2024 4:56:16 PM,2051,1,15,DelayDiscountingTitrated-2051-1,531816907,1,75.008,"<?xml version=""1.0""?>\n<Clock xmlns:dt=""urn:schemas-microsoft-com:datatypes""><Description dt:dt=""string"">E-Prime Primary Realtime Clock</Description><StartTime><Timestamp dt:dt=""int"">0</Timestamp><DateUtc dt:dt=""string"">2024-07-21T16:56:16Z</DateUtc></StartTime><FrequencyChanges><FrequencyChange><Frequency dt:dt=""r8"">10000000</Frequency><Timestamp dt:dt=""r8"">6829526898023</Timestamp><Current dt:dt=""r8"">0</Current><DateUtc dt:dt=""string"">2024-07-21T16:56:16Z</DateUtc></FrequencyChange></FrequencyChanges></Clock>\n",3.0.3.43,3.0.3.60,3.0.3.60,Full,1.0.0.8,Keyboard,Keyboard
Proc3,,List11,,,,,,,,3,1,7,7,Keyboard,798,1,0,,4,,,,,,,,,,,,,,,,,,,,,,,,8,1,8,,,,,,,,,,,,,,,,DelayDiscountingTitrated,07-21-2024,12:56:16,7/21/2024 4:56:16 PM,2051,1,15,DelayDiscountingTitrated-2051-1,531816907,1,75.008,"<?xml version=""1.0""?>\n<Clock xmlns:dt=""urn:schemas-microsoft-com:datatypes""><Description dt:dt=""string"">E-Prime Primary Realtime Clock</Description><StartTime><Timestamp dt:dt=""int"">0</Timestamp><DateUtc dt:dt=""string"">2024-07-21T16:56:16Z</DateUtc></StartTime><FrequencyChanges><FrequencyChange><Frequency dt:dt=""r8"">10000000</Frequency><Timestamp dt:dt=""r8"">6829526898023</Timestamp><Current dt:dt=""r8"">0</Current><DateUtc dt:dt=""string"">2024-07-21T16:56:16Z</DateUtc></FrequencyChange></FrequencyChanges></Clock>\n",3.0.3.43,3.0.3.60,3.0.3.60,Full,1.0.0.8,Keyboard,Keyboard
Proc3,,List11,,,,,,,,1,1,3,3,Keyboard,780,1,0,,2,,,,,,,,,,,,,,,,,,,,,,,,9,1,9,,,,,,,,,,,,,,,,DelayDiscountingTitrated,07-21-2024,12:56:16,7/21/2024 4:56:16 PM,2051,1,15,DelayDiscountingTitrated-2051-1,531816907,1,75.008,"<?xml version=""1.0""?>\n<Clock xmlns:dt=""urn:schemas-microsoft-com:datatypes""><Description dt:dt=""string"">E-Prime Primary Realtime Clock</Description><StartTime><Timestamp dt:dt=""int"">0</Timestamp><DateUtc dt:dt=""string"">2024-07-21T16:56:16Z</DateUtc></StartTime><FrequencyChanges><FrequencyChange><Frequency dt:dt=""r8"">10000000</Frequency><Timestamp dt:dt=""r8"">6829526898023</Timestamp><Current dt:dt=""r8"">0</Current><DateUtc dt:dt=""string"">2024-07-21T16:56:16Z</DateUtc></FrequencyChange></FrequencyChanges></Clock>\n",3.0.3.43,3.0.3.60,3.0.3.60,Full,1.0.0.8,Keyboard,Keyboard
Proc3,,List11,,,,,,,,2,3,1,1,Keyboard,1838,3,0,,1,,,,,,,,,,,,,,,,,,,,,,,,10,1,10,,,,,,,,,,,,,,,,DelayDiscountingTitrated,07-21-2024,12:56:16,7/21/2024 4:56:16 PM,2051,1,15,DelayDiscountingTitrated-2051-1,531816907,1,75.008,"<?xml version=""1.0""?>\n<Clock xmlns:dt=""urn:schemas-microsoft-com:datatypes""><Description dt:dt=""string"">E-Prime Primary Realtime Clock</Description><StartTime><Timestamp dt:dt=""int"">0</Timestamp><DateUtc dt:dt=""string"">2024-07-21T16:56:16Z</DateUtc></StartTime><FrequencyChanges><FrequencyChange><Frequency dt:dt=""r8"">10000000</Frequency><Timestamp dt:dt=""r8"">6829526898023</Timestamp><Current dt:dt=""r8"">0</Current><DateUtc dt:dt=""string"">2024-07-21T16:56:16Z</DateUtc></FrequencyChange></FrequencyChanges></Clock>\n",3.0.3.43,3.0.3.60,3.0.3.60,Full,1.0.0.8,Keyboard,Keyboard
Proc3,,List11,,,,,,,,2,3,1,2,Keyboard,2508,3,0,,,,,,,,,,,,,,,,,,,,,,,,,,11,1,11,,,,,,,,,,,,,,,,DelayDiscountingTitrated,07-21-2024,12:56:16,7/21/2024 4:56:16 PM,2051,1,15,DelayDiscountingTitrated-2051-1,531816907,1,75.008,"<?xml version=""1.0""?>\n<Clock xmlns:dt=""urn:schemas-microsoft-com:datatypes""><Description dt:dt=""string"">E-Prime Primary Realtime Clock</Description><StartTime><Timestamp dt:dt=""int"">0</Timestamp><DateUtc dt:dt=""string"">2024-07-21T16:56:16Z</DateUtc></StartTime><FrequencyChanges><FrequencyChange><Frequency dt:dt=""r8"">10000000</Frequency><Timestamp dt:dt=""r8"">6829526898023</Timestamp><Current dt:dt=""r8"">0</Current><DateUtc dt:dt=""string"">2024-07-21T16:56:16Z</DateUtc></FrequencyChange></FrequencyChanges></Clock>\n",3.0.3.43,3.0.3.60,3.0.3.60,Full,1.0.0.8,Keyboard,Keyboard
discount3,,List6,,,,,,,,,,,,,,,,,,800,1 year,365,,,,,,,,,,,,,,,,,,,,,,,,3,1,1,,,,,,,,,,,,,DelayDiscountingTitrated,07-21-2024,12:56:16,7/21/2024 4:56:16 PM,2051,1,15,DelayDiscountingTitrated-2051-1,531816907,1,75.008,"<?xml version=""1.0""?>\n<Clock xmlns:dt=""urn:schemas-microsoft-com:datatypes""><Description dt:dt=""string"">E-Prime Primary Realtime Clock</Description><StartTime><Timestamp dt:dt=""int"">0</Timestamp><DateUtc dt:dt=""string"">2024-07-21T16:56:16Z</DateUtc></StartTime><FrequencyChanges><FrequencyChange><Frequency dt:dt=""r8"">10000000</Frequency><Timestamp dt:dt=""r8"">6829526898023</Timestamp><Current dt:dt=""r8"">0</Current><DateUtc dt:dt=""string"">2024-07-21T16:56:16Z</DateUtc></FrequencyChange></FrequencyChanges></Clock>\n",3.0.3.43,3.0.3.60,3.0.3.60,Full,1.0.0.8,Keyboard,Keyboard
oneyearproc,,List1,,,,,,,,,,,,,,,,,,,,,,,,4,1,4,4,Keyboard,,,,,,,,,,,,,,,,,,,,,,,,,,,,,,,DelayDiscountingTitrated,07-21-2024,12:56:16,7/21/2024 4:56:16 PM,2051,1,15,DelayDiscountingTitrated-2051-1,531816907,1,75.008,"<?xml version=""1.0""?>\n<Clock xmlns:dt=""urn:schemas-microsoft-com:datatypes""><Description dt:dt=""string"">E-Prime Primary Realtime Clock</Description><StartTime><Timestamp dt:dt=""int"">0</Timestamp><DateUtc dt:dt=""string"">2024-07-21T16:56:16Z</DateUtc></StartTime><FrequencyChanges><FrequencyChange><Frequency dt:dt=""r8"">10000000</Frequency><Timestamp dt:dt=""r8"">6829526898023</Timestamp><Current dt:dt=""r8"">0</Current><DateUtc dt:dt=""string"">2024-07-21T16:56:16Z</DateUtc></FrequencyChange></FrequencyChanges></Clock>\n",3.0.3.43,3.0.3.60,3.0.3.60,Full,1.0.0.8,Keyboard,Keyboard
Init5,,List13,,,Keyboard,2288,1,0,,100,1,200,,,,,,,,,,,,,,,,,,,,,,,,,,,,,,,,,,,,,1,1,1,,,,,,,,,,DelayDiscountingTitrated,07-21-2024,12:56:16,7/21/2024 4:56:16 PM,2051,1,15,DelayDiscountingTitrated-2051-1,531816907,1,75.008,"<?xml version=""1.0""?>\n<Clock xmlns:dt=""urn:schemas-microsoft-com:datatypes""><Description dt:dt=""string"">E-Prime Primary Realtime Clock</Description><StartTime><Timestamp dt:dt=""int"">0</Timestamp><DateUtc dt:dt=""string"">2024-07-21T16:56:16Z</DateUtc></StartTime><FrequencyChanges><FrequencyChange><Frequency dt:dt=""r8"">10000000</Frequency><Timestamp dt:dt=""r8"">6829526898023</Timestamp><Current dt:dt=""r8"">0</Current><DateUtc dt:dt=""string"">2024-07-21T16:56:16Z</DateUtc></FrequencyChange></FrequencyChanges></Clock>\n",3.0.3.43,3.0.3.60,3.0.3.60,Full,1.0.0.8,Keyboard,Keyboard
Proc5,,List13,,,,,,,,50,1,100,100,Keyboard,809,1,0,,50,,,,,,,,,,,,,,,,,,,,,,,,,,,,,,2,1,2,,,,,,,,,,DelayDiscountingTitrated,07-21-2024,12:56:16,7/21/2024 4:56:16 PM,2051,1,15,DelayDiscountingTitrated-2051-1,531816907,1,75.008,"<?xml version=""1.0""?>\n<Clock xmlns:dt=""urn:schemas-microsoft-com:datatypes""><Description dt:dt=""string"">E-Prime Primary Realtime Clock</Description><StartTime><Timestamp dt:dt=""int"">0</Timestamp><DateUtc dt:dt=""string"">2024-07-21T16:56:16Z</DateUtc></StartTime><FrequencyChanges><FrequencyChange><Frequency dt:dt=""r8"">10000000</Frequency><Timestamp dt:dt=""r8"">6829526898023</Timestamp><Current dt:dt=""r8"">0</Current><DateUtc dt:dt=""string"">2024-07-21T16:56:16Z</DateUtc></FrequencyChange></FrequencyChanges></Clock>\n",3.0.3.43,3.0.3.60,3.0.3.60,Full,1.0.0.8,Keyboard,Keyboard
Proc5,,List13,,,,,,,,25,1,50,50,Keyboard,418,1,0,,25,,,,,,,,,,,,,,,,,,,,,,,,,,,,,,3,1,3,,,,,,,,,,DelayDiscountingTitrated,07-21-2024,12:56:16,7/21/2024 4:56:16 PM,2051,1,15,DelayDiscountingTitrated-2051-1,531816907,1,75.008,"<?xml version=""1.0""?>\n<Clock xmlns:dt=""urn:schemas-microsoft-com:datatypes""><Description dt:dt=""string"">E-Prime Primary Realtime Clock</Description><StartTime><Timestamp dt:dt=""int"">0</Timestamp><DateUtc dt:dt=""string"">2024-07-21T16:56:16Z</DateUtc></StartTime><FrequencyChanges><FrequencyChange><Frequency dt:dt=""r8"">10000000</Frequency><Timestamp dt:dt=""r8"">6829526898023</Timestamp><Current dt:dt=""r8"">0</Current><DateUtc dt:dt=""string"">2024-07-21T16:56:16Z</DateUtc></FrequencyChange></FrequencyChanges></Clock>\n",3.0.3.43,3.0.3.60,3.0.3.60,Full,1.0.0.8,Keyboard,Keyboard
Proc5,,List13,,,,,,,,13,1,25,25,Keyboard,263,1,0,,12,,,,,,,,,,,,,,,,,,,,,,,,,,,,,,4,1,4,,,,,,,,,,DelayDiscountingTitrated,07-21-2024,12:56:16,7/21/2024 4:56:16 PM,2051,1,15,DelayDiscountingTitrated-2051-1,531816907,1,75.008,"<?xml version=""1.0""?>\n<Clock xmlns:dt=""urn:schemas-microsoft-com:datatypes""><Description dt:dt=""string"">E-Prime Primary Realtime Clock</Description><StartTime><Timestamp dt:dt=""int"">0</Timestamp><DateUtc dt:dt=""string"">2024-07-21T16:56:16Z</DateUtc></StartTime><FrequencyChanges><FrequencyChange><Frequency dt:dt=""r8"">10000000</Frequency><Timestamp dt:dt=""r8"">6829526898023</Timestamp><Current dt:dt=""r8"">0</Current><DateUtc dt:dt=""string"">2024-07-21T16:56:16Z</DateUtc></FrequencyChange></FrequencyChanges></Clock>\n",3.0.3.43,3.0.3.60,3.0.3.60,Full,1.0.0.8,Keyboard,Keyboard
Proc5,,List13,,,,,,,,7,1,13,13,Keyboard,360,1,0,,6,,,,,,,,,,,,,,,,,,,,,,,,,,,,,,5,1,5,,,,,,,,,,DelayDiscountingTitrated,07-21-2024,12:56:16,7/21/2024 4:56:16 PM,2051,1,15,DelayDiscountingTitrated-2051-1,531816907,1,75.008,"<?xml version=""1.0""?>\n<Clock xmlns:dt=""urn:schemas-microsoft-com:datatypes""><Description dt:dt=""string"">E-Prime Primary Realtime Clock</Description><StartTime><Timestamp dt:dt=""int"">0</Timestamp><DateUtc dt:dt=""string"">2024-07-21T16:56:16Z</DateUtc></StartTime><FrequencyChanges><FrequencyChange><Frequency dt:dt=""r8"">10000000</Frequency><Timestamp dt:dt=""r8"">6829526898023</Timestamp><Current dt:dt=""r8"">0</Current><DateUtc dt:dt=""string"">2024-07-21T16:56:16Z</DateUtc></FrequencyChange></FrequencyChanges></Clock>\n",3.0.3.43,3.0.3.60,3.0.3.60,Full,1.0.0.8,Keyboard,Keyboard
Proc5,,List13,,,,,,,,3,1,7,7,Keyboard,1065,1,0,,4,,,,,,,,,,,,,,,,,,,,,,,,,,,,,,6,1,6,,,,,,,,,,DelayDiscountingTitrated,07-21-2024,12:56:16,7/21/2024 4:56:16 PM,2051,1,15,DelayDiscountingTitrated-2051-1,531816907,1,75.008,"<?xml version=""1.0""?>\n<Clock xmlns:dt=""urn:schemas-microsoft-com:datatypes""><Description dt:dt=""string"">E-Prime Primary Realtime Clock</Description><StartTime><Timestamp dt:dt=""int"">0</Timestamp><DateUtc dt:dt=""string"">2024-07-21T16:56:16Z</DateUtc></StartTime><FrequencyChanges><FrequencyChange><Frequency dt:dt=""r8"">10000000</Frequency><Timestamp dt:dt=""r8"">6829526898023</Timestamp><Current dt:dt=""r8"">0</Current><DateUtc dt:dt=""string"">2024-07-21T16:56:16Z</DateUtc></FrequencyChange></FrequencyChanges></Clock>\n",3.0.3.43,3.0.3.60,3.0.3.60,Full,1.0.0.8,Keyboard,Keyboard
Proc5,,List13,,,,,,,,1,1,3,3,Keyboard,719,1,0,,2,,,,,,,,,,,,,,,,,,,,,,,,,,,,,,7,1,7,,,,,,,,,,DelayDiscountingTitrated,07-21-2024,12:56:16,7/21/2024 4:56:16 PM,2051,1,15,DelayDiscountingTitrated-2051-1,531816907,1,75.008,"<?xml version=""1.0""?>\n<Clock xmlns:dt=""urn:schemas-microsoft-com:datatypes""><Description dt:dt=""string"">E-Prime Primary Realtime Clock</Description><StartTime><Timestamp dt:dt=""int"">0</Timestamp><DateUtc dt:dt=""string"">2024-07-21T16:56:16Z</DateUtc></StartTime><FrequencyChanges><FrequencyChange><Frequency dt:dt=""r8"">10000000</Frequency><Timestamp dt:dt=""r8"">6829526898023</Timestamp><Current dt:dt=""r8"">0</Current><DateUtc dt:dt=""string"">2024-07-21T16:56:16Z</DateUtc></FrequencyChange></FrequencyChanges></Clock>\n",3.0.3.43,3.0.3.60,3.0.3.60,Full,1.0.0.8,Keyboard,Keyboard
Proc5,,List13,,,,,,,,1,1,,1,Keyboard,259,1,0,,,,,,,,,,,,,,,,,,,,,,,,,,,,,,,,8,1,8,,,,,,,,,,DelayDiscountingTitrated,07-21-2024,12:56:16,7/21/2024 4:56:16 PM,2051,1,15,DelayDiscountingTitrated-2051-1,531816907,1,75.008,"<?xml version=""1.0""?>\n<Clock xmlns:dt=""urn:schemas-microsoft-com:datatypes""><Description dt:dt=""string"">E-Prime Primary Realtime Clock</Description><StartTime><Timestamp dt:dt=""int"">0</Timestamp><DateUtc dt:dt=""string"">2024-07-21T16:56:16Z</DateUtc></StartTime><FrequencyChanges><FrequencyChange><Frequency dt:dt=""r8"">10000000</Frequency><Timestamp dt:dt=""r8"">6829526898023</Timestamp><Current dt:dt=""r8"">0</Current><DateUtc dt:dt=""string"">2024-07-21T16:56:16Z</DateUtc></FrequencyChange></FrequencyChanges></Clock>\n",3.0.3.43,3.0.3.60,3.0.3.60,Full,1.0.0.8,Keyboard,Keyboard
discount5,,List8,,,,,,,,,,,,,,,,,,200,15 years,5475,,,,,,,,,,,,,,,,,,,,,,,,,,,,,,1,2,1,,,,,,,DelayDiscountingTitrated,07-21-2024,12:56:16,7/21/2024 4:56:16 PM,2051,1,15,DelayDiscountingTitrated-2051-1,531816907,1,75.008,"<?xml version=""1.0""?>\n<Clock xmlns:dt=""urn:schemas-microsoft-com:datatypes""><Description dt:dt=""string"">E-Prime Primary Realtime Clock</Description><StartTime><Timestamp dt:dt=""int"">0</Timestamp><DateUtc dt:dt=""string"">2024-07-21T16:56:16Z</DateUtc></StartTime><FrequencyChanges><FrequencyChange><Frequency dt:dt=""r8"">10000000</Frequency><Timestamp dt:dt=""r8"">6829526898023</Timestamp><Current dt:dt=""r8"">0</Current><DateUtc dt:dt=""string"">2024-07-21T16:56:16Z</DateUtc></FrequencyChange></FrequencyChanges></Clock>\n",3.0.3.43,3.0.3.60,3.0.3.60,Full,1.0.0.8,Keyboard,Keyboard
fifteenyearproc,,List1,,,,,,,,,,,,,,,,,,,,,,,,6,1,5,5,Keyboard,,,,,,,,,,,,,,,,,,,,,,,,,,,,,,,DelayDiscountingTitrated,07-21-2024,12:56:16,7/21/2024 4:56:16 PM,2051,1,15,DelayDiscountingTitrated-2051-1,531816907,1,75.008,"<?xml version=""1.0""?>\n<Clock xmlns:dt=""urn:schemas-microsoft-com:datatypes""><Description dt:dt=""string"">E-Prime Primary Realtime Clock</Description><StartTime><Timestamp dt:dt=""int"">0</Timestamp><DateUtc dt:dt=""string"">2024-07-21T16:56:16Z</DateUtc></StartTime><FrequencyChanges><FrequencyChange><Frequency dt:dt=""r8"">10000000</Frequency><Timestamp dt:dt=""r8"">6829526898023</Timestamp><Current dt:dt=""r8"">0</Current><DateUtc dt:dt=""string"">2024-07-21T16:56:16Z</DateUtc></FrequencyChange></FrequencyChanges></Clock>\n",3.0.3.43,3.0.3.60,3.0.3.60,Full,1.0.0.8,Keyboard,Keyboard
Init4,,List12,,,Keyboard,4502,1,0,,250,1,500,,,,,,,,,,,,,,,,,,,,,,,,,,,,,,,,,,,,,,,,,,,1,1,1,,,,DelayDiscountingTitrated,07-21-2024,12:56:16,7/21/2024 4:56:16 PM,2051,1,15,DelayDiscountingTitrated-2051-1,531816907,1,75.008,"<?xml version=""1.0""?>\n<Clock xmlns:dt=""urn:schemas-microsoft-com:datatypes""><Description dt:dt=""string"">E-Prime Primary Realtime Clock</Description><StartTime><Timestamp dt:dt=""int"">0</Timestamp><DateUtc dt:dt=""string"">2024-07-21T16:56:16Z</DateUtc></StartTime><FrequencyChanges><FrequencyChange><Frequency dt:dt=""r8"">10000000</Frequency><Timestamp dt:dt=""r8"">6829526898023</Timestamp><Current dt:dt=""r8"">0</Current><DateUtc dt:dt=""string"">2024-07-21T16:56:16Z</DateUtc></FrequencyChange></FrequencyChanges></Clock>\n",3.0.3.43,3.0.3.60,3.0.3.60,Full,1.0.0.8,Keyboard,Keyboard
Proc4,,List12,,,,,,,,125,1,250,250,Keyboard,1428,1,0,,125,,,,,,,,,,,,,,,,,,,,,,,,,,,,,,,,,,,,2,1,2,,,,DelayDiscountingTitrated,07-21-2024,12:56:16,7/21/2024 4:56:16 PM,2051,1,15,DelayDiscountingTitrated-2051-1,531816907,1,75.008,"<?xml version=""1.0""?>\n<Clock xmlns:dt=""urn:schemas-microsoft-com:datatypes""><Description dt:dt=""string"">E-Prime Primary Realtime Clock</Description><StartTime><Timestamp dt:dt=""int"">0</Timestamp><DateUtc dt:dt=""string"">2024-07-21T16:56:16Z</DateUtc></StartTime><FrequencyChanges><FrequencyChange><Frequency dt:dt=""r8"">10000000</Frequency><Timestamp dt:dt=""r8"">6829526898023</Timestamp><Current dt:dt=""r8"">0</Current><DateUtc dt:dt=""string"">2024-07-21T16:56:16Z</DateUtc></FrequencyChange></FrequencyChanges></Clock>\n",3.0.3.43,3.0.3.60,3.0.3.60,Full,1.0.0.8,Keyboard,Keyboard
Proc4,,List12,,,,,,,,63,1,125,125,Keyboard,2427,1,0,,62,,,,,,,,,,,,,,,,,,,,,,,,,,,,,,,,,,,,3,1,3,,,,DelayDiscountingTitrated,07-21-2024,12:56:16,7/21/2024 4:56:16 PM,2051,1,15,DelayDiscountingTitrated-2051-1,531816907,1,75.008,"<?xml version=""1.0""?>\n<Clock xmlns:dt=""urn:schemas-microsoft-com:datatypes""><Description dt:dt=""string"">E-Prime Primary Realtime Clock</Description><StartTime><Timestamp dt:dt=""int"">0</Timestamp><DateUtc dt:dt=""string"">2024-07-21T16:56:16Z</DateUtc></StartTime><FrequencyChanges><FrequencyChange><Frequency dt:dt=""r8"">10000000</Frequency><Timestamp dt:dt=""r8"">6829526898023</Timestamp><Current dt:dt=""r8"">0</Current><DateUtc dt:dt=""string"">2024-07-21T16:56:16Z</DateUtc></FrequencyChange></FrequencyChanges></Clock>\n",3.0.3.43,3.0.3.60,3.0.3.60,Full,1.0.0.8,Keyboard,Keyboard
Proc4,,List12,,,,,,,,94,3,63,63,Keyboard,3555,3,0,,31,,,,,,,,,,,,,,,,,,,,,,,,,,,,,,,,,,,,4,1,4,,,,DelayDiscountingTitrated,07-21-2024,12:56:16,7/21/2024 4:56:16 PM,2051,1,15,DelayDiscountingTitrated-2051-1,531816907,1,75.008,"<?xml version=""1.0""?>\n<Clock xmlns:dt=""urn:schemas-microsoft-com:datatypes""><Description dt:dt=""string"">E-Prime Primary Realtime Clock</Description><StartTime><Timestamp dt:dt=""int"">0</Timestamp><DateUtc dt:dt=""string"">2024-07-21T16:56:16Z</DateUtc></StartTime><FrequencyChanges><FrequencyChange><Frequency dt:dt=""r8"">10000000</Frequency><Timestamp dt:dt=""r8"">6829526898023</Timestamp><Current dt:dt=""r8"">0</Current><DateUtc dt:dt=""string"">2024-07-21T16:56:16Z</DateUtc></FrequencyChange></FrequencyChanges></Clock>\n",3.0.3.43,3.0.3.60,3.0.3.60,Full,1.0.0.8,Keyboard,Keyboard
Proc4,,List12,,,,,,,,78,1,94,94,Keyboard,2016,1,0,,16,,,,,,,,,,,,,,,,,,,,,,,,,,,,,,,,,,,,5,1,5,,,,DelayDiscountingTitrated,07-21-2024,12:56:16,7/21/2024 4:56:16 PM,2051,1,15,DelayDiscountingTitrated-2051-1,531816907,1,75.008,"<?xml version=""1.0""?>\n<Clock xmlns:dt=""urn:schemas-microsoft-com:datatypes""><Description dt:dt=""string"">E-Prime Primary Realtime Clock</Description><StartTime><Timestamp dt:dt=""int"">0</Timestamp><DateUtc dt:dt=""string"">2024-07-21T16:56:16Z</DateUtc></StartTime><FrequencyChanges><FrequencyChange><Frequency dt:dt=""r8"">10000000</Frequency><Timestamp dt:dt=""r8"">6829526898023</Timestamp><Current dt:dt=""r8"">0</Current><DateUtc dt:dt=""string"">2024-07-21T16:56:16Z</DateUtc></FrequencyChange></FrequencyChanges></Clock>\n",3.0.3.43,3.0.3.60,3.0.3.60,Full,1.0.0.8,Keyboard,Keyboard
Proc4,,List12,,,,,,,,86,3,78,78,Keyboard,2564,3,0,,8,,,,,,,,,,,,,,,,,,,,,,,,,,,,,,,,,,,,6,1,6,,,,DelayDiscountingTitrated,07-21-2024,12:56:16,7/21/2024 4:56:16 PM,2051,1,15,DelayDiscountingTitrated-2051-1,531816907,1,75.008,"<?xml version=""1.0""?>\n<Clock xmlns:dt=""urn:schemas-microsoft-com:datatypes""><Description dt:dt=""string"">E-Prime Primary Realtime Clock</Description><StartTime><Timestamp dt:dt=""int"">0</Timestamp><DateUtc dt:dt=""string"">2024-07-21T16:56:16Z</DateUtc></StartTime><FrequencyChanges><FrequencyChange><Frequency dt:dt=""r8"">10000000</Frequency><Timestamp dt:dt=""r8"">6829526898023</Timestamp><Current dt:dt=""r8"">0</Current><DateUtc dt:dt=""string"">2024-07-21T16:56:16Z</DateUtc></FrequencyChange></FrequencyChanges></Clock>\n",3.0.3.43,3.0.3.60,3.0.3.60,Full,1.0.0.8,Keyboard,Keyboard
Proc4,,List12,,,,,,,,90,3,86,86,Keyboard,1202,3,0,,4,,,,,,,,,,,,,,,,,,,,,,,,,,,,,,,,,,,,7,1,7,,,,DelayDiscountingTitrated,07-21-2024,12:56:16,7/21/2024 4:56:16 PM,2051,1,15,DelayDiscountingTitrated-2051-1,531816907,1,75.008,"<?xml version=""1.0""?>\n<Clock xmlns:dt=""urn:schemas-microsoft-com:datatypes""><Description dt:dt=""string"">E-Prime Primary Realtime Clock</Description><StartTime><Timestamp dt:dt=""int"">0</Timestamp><DateUtc dt:dt=""string"">2024-07-21T16:56:16Z</DateUtc></StartTime><FrequencyChanges><FrequencyChange><Frequency dt:dt=""r8"">10000000</Frequency><Timestamp dt:dt=""r8"">6829526898023</Timestamp><Current dt:dt=""r8"">0</Current><DateUtc dt:dt=""string"">2024-07-21T16:56:16Z</DateUtc></FrequencyChange></FrequencyChanges></Clock>\n",3.0.3.43,3.0.3.60,3.0.3.60,Full,1.0.0.8,Keyboard,Keyboard
Proc4,,List12,,,,,,,,92,3,90,90,Keyboard,4797,3,0,,2,,,,,,,,,,,,,,,,,,,,,,,,,,,,,,,,,,,,8,1,8,,,,DelayDiscountingTitrated,07-21-2024,12:56:16,7/21/2024 4:56:16 PM,2051,1,15,DelayDiscountingTitrated-2051-1,531816907,1,75.008,"<?xml version=""1.0""?>\n<Clock xmlns:dt=""urn:schemas-microsoft-com:datatypes""><Description dt:dt=""string"">E-Prime Primary Realtime Clock</Description><StartTime><Timestamp dt:dt=""int"">0</Timestamp><DateUtc dt:dt=""string"">2024-07-21T16:56:16Z</DateUtc></StartTime><FrequencyChanges><FrequencyChange><Frequency dt:dt=""r8"">10000000</Frequency><Timestamp dt:dt=""r8"">6829526898023</Timestamp><Current dt:dt=""r8"">0</Current><DateUtc dt:dt=""string"">2024-07-21T16:56:16Z</DateUtc></FrequencyChange></FrequencyChanges></Clock>\n",3.0.3.43,3.0.3.60,3.0.3.60,Full,1.0.0.8,Keyboard,Keyboard
Proc4,,List12,,,,,,,,93,3,92,92,Keyboard,1080,3,0,,1,,,,,,,,,,,,,,,,,,,,,,,,,,,,,,,,,,,,9,1,9,,,,DelayDiscountingTitrated,07-21-2024,12:56:16,7/21/2024 4:56:16 PM,2051,1,15,DelayDiscountingTitrated-2051-1,531816907,1,75.008,"<?xml version=""1.0""?>\n<Clock xmlns:dt=""urn:schemas-microsoft-com:datatypes""><Description dt:dt=""string"">E-Prime Primary Realtime Clock</Description><StartTime><Timestamp dt:dt=""int"">0</Timestamp><DateUtc dt:dt=""string"">2024-07-21T16:56:16Z</DateUtc></StartTime><FrequencyChanges><FrequencyChange><Frequency dt:dt=""r8"">10000000</Frequency><Timestamp dt:dt=""r8"">6829526898023</Timestamp><Current dt:dt=""r8"">0</Current><DateUtc dt:dt=""string"">2024-07-21T16:56:16Z</DateUtc></FrequencyChange></FrequencyChanges></Clock>\n",3.0.3.43,3.0.3.60,3.0.3.60,Full,1.0.0.8,Keyboard,Keyboard
Proc4,,List12,,,,,,,,93,3,92,93,Keyboard,647,3,0,,,,,,,,,,,,,,,,,,,,,,,,,,,,,,,,,,,,,,10,1,10,,,,DelayDiscountingTitrated,07-21-2024,12:56:16,7/21/2024 4:56:16 PM,2051,1,15,DelayDiscountingTitrated-2051-1,531816907,1,75.008,"<?xml version=""1.0""?>\n<Clock xmlns:dt=""urn:schemas-microsoft-com:datatypes""><Description dt:dt=""string"">E-Prime Primary Realtime Clock</Description><StartTime><Timestamp dt:dt=""int"">0</Timestamp><DateUtc dt:dt=""string"">2024-07-21T16:56:16Z</DateUtc></StartTime><FrequencyChanges><FrequencyChange><Frequency dt:dt=""r8"">10000000</Frequency><Timestamp dt:dt=""r8"">6829526898023</Timestamp><Current dt:dt=""r8"">0</Current><DateUtc dt:dt=""string"">2024-07-21T16:56:16Z</DateUtc></FrequencyChange></FrequencyChanges></Clock>\n",3.0.3.43,3.0.3.60,3.0.3.60,Full,1.0.0.8,Keyboard,Keyboard
discount4,,List7,,,,,,,,,,,,,,,,,,500,5 years,1825,,,,,,,,,,,,,,,,,,,,,,,,,,,,,,,,,,,,2,1,1,DelayDiscountingTitrated,07-21-2024,12:56:16,7/21/2024 4:56:16 PM,2051,1,15,DelayDiscountingTitrated-2051-1,531816907,1,75.008,"<?xml version=""1.0""?>\n<Clock xmlns:dt=""urn:schemas-microsoft-com:datatypes""><Description dt:dt=""string"">E-Prime Primary Realtime Clock</Description><StartTime><Timestamp dt:dt=""int"">0</Timestamp><DateUtc dt:dt=""string"">2024-07-21T16:56:16Z</DateUtc></StartTime><FrequencyChanges><FrequencyChange><Frequency dt:dt=""r8"">10000000</Frequency><Timestamp dt:dt=""r8"">6829526898023</Timestamp><Current dt:dt=""r8"">0</Current><DateUtc dt:dt=""string"">2024-07-21T16:56:16Z</DateUtc></FrequencyChange></FrequencyChanges></Clock>\n",3.0.3.43,3.0.3.60,3.0.3.60,Full,1.0.0.8,Keyboard,Keyboard
fiveyearproc,,List1,,,,,,,,,,,,,,,,,,,,,,,,5,1,6,6,Keyboard,,,,,,,,,,,,,,,,,,,,,,,,,,,,,,,DelayDiscountingTitrated,07-21-2024,12:56:16,7/21/2024 4:56:16 PM,2051,1,15,DelayDiscountingTitrated-2051-1,531816907,1,75.008,"<?xml version=""1.0""?>\n<Clock xmlns:dt=""urn:schemas-microsoft-com:datatypes""><Description dt:dt=""string"">E-Prime Primary Realtime Clock</Description><StartTime><Timestamp dt:dt=""int"">0</Timestamp><DateUtc dt:dt=""string"">2024-07-21T16:56:16Z</DateUtc></StartTime><FrequencyChanges><FrequencyChange><Frequency dt:dt=""r8"">10000000</Frequency><Timestamp dt:dt=""r8"">6829526898023</Timestamp><Current dt:dt=""r8"">0</Current><DateUtc dt:dt=""string"">2024-07-21T16:56:16Z</DateUtc></FrequencyChange></FrequencyChanges></Clock>\n",3.0.3.43,3.0.3.60,3.0.3.60,Full,1.0.0.8,Keyboard,Keyboard
,,,,,,,,,,,,,,,,,,,,,,,,,,,,,,,,,,,,,,,,,,,,,,,,,,,,,,,,,,,,,DelayDiscountingTitrated,07-21-2024,12:56:16,7/21/2024 4:56:16 PM,2051,1,15,DelayDiscountingTitrated-2051-1,531816907,1,75.008,"<?xml version=""1.0""?>\n<Clock xmlns:dt=""urn:schemas-microsoft-com:datatypes""><Description dt:dt=""string"">E-Prime Primary Realtime Clock</Description><StartTime><Timestamp dt:dt=""int"">0</Timestamp><DateUtc dt:dt=""string"">2024-07-21T16:56:16Z</DateUtc></StartTime><FrequencyChanges><FrequencyChange><Frequency dt:dt=""r8"">10000000</Frequency><Timestamp dt:dt=""r8"">6829526898023</Timestamp><Current dt:dt=""r8"">0</Current><DateUtc dt:dt=""string"">2024-07-21T16:56:16Z</DateUtc></FrequencyChange></FrequencyChanges></Clock>\n",3.0.3.43,3.0.3.60,3.0.3.60,Full,1.0.0.8,Keyboard,Keyboard
