Procedure,List10,Running,List10.Cycle,List10.Sample,Slide2.RT,Slide2.RESP,Slide4.RT,Slide4.RESP,immed3,respprev,prevalue,imstring,Slide1.RT,Slide1.RESP,Slide5.RT,Slide5.RESP,immed5,immed,delaypd,timedays,List5,List5.Cycle,List5.Sample,List1,List1.Cycle,List1.Sample,roundnumber,List9,List9.Cycle,List9.Sample,List4,List4.Cycle,List4.Sample,List13,List13.Cycle,List13.Sample,List8,List8.Cycle,List8.Sample,List11,List11.Cycle,List11.Sample,List6,List6.Cycle,List6.Sample,List2,List2.Cycle,List2.Sample,List3,List3.Cycle,List3.Sample,List12,List12.Cycle,List12.Sample,List7,List7.Cycle,List7.Sample,Experiment,SessionDate,SessionTime,SessionStartDateTimeUtc,Subject,Session,Age,DataFile.Basename,RandomSeed,Group,Display.RefreshRate,Clock.Information,StudioVersion,RuntimeVersion,RuntimeVersionExpected,RuntimeCapabilities,ExperimentVersion
Init2,1,List10,1,1,8740,1,0,,400,1,800,,,,,,,,,,,,,,,,,,,,,,,,,,,,,,,,,,,,,,,,,,,,,,,DelayDiscountingTitrated Backup1,01-13-2024,15:49:16,1/13/2024 8:49:16 PM,1019,1,11,DelayDiscountingTitrated Backup1-1019-1,-1765630129,1,60.018,"<?xml version=""1.0""?>\n<Clock xmlns:dt=""urn:schemas-microsoft-com:datatypes""><Description dt:dt=""string"">E-Prime Primary Realtime Clock</Description><StartTime><Timestamp dt:dt=""int"">0</Timestamp><DateUtc dt:dt=""string"">2024-01-13T20:49:16Z</DateUtc></StartTime><FrequencyChanges><FrequencyChange><Frequency dt:dt=""r8"">10000000</Frequency><Timestamp dt:dt=""r8"">3983962001093</Timestamp><Current dt:dt=""r8"">0</Current><DateUtc dt:dt=""string"">2024-01-13T20:49:16Z</DateUtc></FrequencyChange></FrequencyChanges></Clock>\n",2.0.10.252,2.0.10.356,2.0.10.356,Professional,1.0.0.1
Proc2,2,List10,1,2,,,,,600,3,400,400,3319,3,0,,200,,,,,,,,,,,,,,,,,,,,,,,,,,,,,,,,,,,,,,,,,DelayDiscountingTitrated Backup1,01-13-2024,15:49:16,1/13/2024 8:49:16 PM,1019,1,11,DelayDiscountingTitrated Backup1-1019-1,-1765630129,1,60.018,"<?xml version=""1.0""?>\n<Clock xmlns:dt=""urn:schemas-microsoft-com:datatypes""><Description dt:dt=""string"">E-Prime Primary Realtime Clock</Description><StartTime><Timestamp dt:dt=""int"">0</Timestamp><DateUtc dt:dt=""string"">2024-01-13T20:49:16Z</DateUtc></StartTime><FrequencyChanges><FrequencyChange><Frequency dt:dt=""r8"">10000000</Frequency><Timestamp dt:dt=""r8"">3983962001093</Timestamp><Current dt:dt=""r8"">0</Current><DateUtc dt:dt=""string"">2024-01-13T20:49:16Z</DateUtc></FrequencyChange></FrequencyChanges></Clock>\n",2.0.10.252,2.0.10.356,2.0.10.356,Professional,1.0.0.1
Proc2,3,List10,1,3,,,,,700,3,600,600,4762,3,0,,100,,,,,,,,,,,,,,,,,,,,,,,,,,,,,,,,,,,,,,,,,DelayDiscountingTitrated Backup1,01-13-2024,15:49:16,1/13/2024 8:49:16 PM,1019,1,11,DelayDiscountingTitrated Backup1-1019-1,-1765630129,1,60.018,"<?xml version=""1.0""?>\n<Clock xmlns:dt=""urn:schemas-microsoft-com:datatypes""><Description dt:dt=""string"">E-Prime Primary Realtime Clock</Description><StartTime><Timestamp dt:dt=""int"">0</Timestamp><DateUtc dt:dt=""string"">2024-01-13T20:49:16Z</DateUtc></StartTime><FrequencyChanges><FrequencyChange><Frequency dt:dt=""r8"">10000000</Frequency><Timestamp dt:dt=""r8"">3983962001093</Timestamp><Current dt:dt=""r8"">0</Current><DateUtc dt:dt=""string"">2024-01-13T20:49:16Z</DateUtc></FrequencyChange></FrequencyChanges></Clock>\n",2.0.10.252,2.0.10.356,2.0.10.356,Professional,1.0.0.1
Proc2,4,List10,1,4,,,,,750,3,700,700,4099,3,0,,50,,,,,,,,,,,,,,,,,,,,,,,,,,,,,,,,,,,,,,,,,DelayDiscountingTitrated Backup1,01-13-2024,15:49:16,1/13/2024 8:49:16 PM,1019,1,11,DelayDiscountingTitrated Backup1-1019-1,-1765630129,1,60.018,"<?xml version=""1.0""?>\n<Clock xmlns:dt=""urn:schemas-microsoft-com:datatypes""><Description dt:dt=""string"">E-Prime Primary Realtime Clock</Description><StartTime><Timestamp dt:dt=""int"">0</Timestamp><DateUtc dt:dt=""string"">2024-01-13T20:49:16Z</DateUtc></StartTime><FrequencyChanges><FrequencyChange><Frequency dt:dt=""r8"">10000000</Frequency><Timestamp dt:dt=""r8"">3983962001093</Timestamp><Current dt:dt=""r8"">0</Current><DateUtc dt:dt=""string"">2024-01-13T20:49:16Z</DateUtc></FrequencyChange></FrequencyChanges></Clock>\n",2.0.10.252,2.0.10.356,2.0.10.356,Professional,1.0.0.1
Proc2,5,List10,1,5,,,,,775,3,750,750,2142,3,0,,25,,,,,,,,,,,,,,,,,,,,,,,,,,,,,,,,,,,,,,,,,DelayDiscountingTitrated Backup1,01-13-2024,15:49:16,1/13/2024 8:49:16 PM,1019,1,11,DelayDiscountingTitrated Backup1-1019-1,-1765630129,1,60.018,"<?xml version=""1.0""?>\n<Clock xmlns:dt=""urn:schemas-microsoft-com:datatypes""><Description dt:dt=""string"">E-Prime Primary Realtime Clock</Description><StartTime><Timestamp dt:dt=""int"">0</Timestamp><DateUtc dt:dt=""string"">2024-01-13T20:49:16Z</DateUtc></StartTime><FrequencyChanges><FrequencyChange><Frequency dt:dt=""r8"">10000000</Frequency><Timestamp dt:dt=""r8"">3983962001093</Timestamp><Current dt:dt=""r8"">0</Current><DateUtc dt:dt=""string"">2024-01-13T20:49:16Z</DateUtc></FrequencyChange></FrequencyChanges></Clock>\n",2.0.10.252,2.0.10.356,2.0.10.356,Professional,1.0.0.1
Proc2,6,List10,1,6,,,,,787,3,775,775,3312,3,0,,12,,,,,,,,,,,,,,,,,,,,,,,,,,,,,,,,,,,,,,,,,DelayDiscountingTitrated Backup1,01-13-2024,15:49:16,1/13/2024 8:49:16 PM,1019,1,11,DelayDiscountingTitrated Backup1-1019-1,-1765630129,1,60.018,"<?xml version=""1.0""?>\n<Clock xmlns:dt=""urn:schemas-microsoft-com:datatypes""><Description dt:dt=""string"">E-Prime Primary Realtime Clock</Description><StartTime><Timestamp dt:dt=""int"">0</Timestamp><DateUtc dt:dt=""string"">2024-01-13T20:49:16Z</DateUtc></StartTime><FrequencyChanges><FrequencyChange><Frequency dt:dt=""r8"">10000000</Frequency><Timestamp dt:dt=""r8"">3983962001093</Timestamp><Current dt:dt=""r8"">0</Current><DateUtc dt:dt=""string"">2024-01-13T20:49:16Z</DateUtc></FrequencyChange></FrequencyChanges></Clock>\n",2.0.10.252,2.0.10.356,2.0.10.356,Professional,1.0.0.1
Proc2,7,List10,1,7,,,,,781,1,787,787,1195,1,0,,6,,,,,,,,,,,,,,,,,,,,,,,,,,,,,,,,,,,,,,,,,DelayDiscountingTitrated Backup1,01-13-2024,15:49:16,1/13/2024 8:49:16 PM,1019,1,11,DelayDiscountingTitrated Backup1-1019-1,-1765630129,1,60.018,"<?xml version=""1.0""?>\n<Clock xmlns:dt=""urn:schemas-microsoft-com:datatypes""><Description dt:dt=""string"">E-Prime Primary Realtime Clock</Description><StartTime><Timestamp dt:dt=""int"">0</Timestamp><DateUtc dt:dt=""string"">2024-01-13T20:49:16Z</DateUtc></StartTime><FrequencyChanges><FrequencyChange><Frequency dt:dt=""r8"">10000000</Frequency><Timestamp dt:dt=""r8"">3983962001093</Timestamp><Current dt:dt=""r8"">0</Current><DateUtc dt:dt=""string"">2024-01-13T20:49:16Z</DateUtc></FrequencyChange></FrequencyChanges></Clock>\n",2.0.10.252,2.0.10.356,2.0.10.356,Professional,1.0.0.1
Proc2,8,List10,1,8,,,,,778,1,781,781,1545,1,0,,3,,,,,,,,,,,,,,,,,,,,,,,,,,,,,,,,,,,,,,,,,DelayDiscountingTitrated Backup1,01-13-2024,15:49:16,1/13/2024 8:49:16 PM,1019,1,11,DelayDiscountingTitrated Backup1-1019-1,-1765630129,1,60.018,"<?xml version=""1.0""?>\n<Clock xmlns:dt=""urn:schemas-microsoft-com:datatypes""><Description dt:dt=""string"">E-Prime Primary Realtime Clock</Description><StartTime><Timestamp dt:dt=""int"">0</Timestamp><DateUtc dt:dt=""string"">2024-01-13T20:49:16Z</DateUtc></StartTime><FrequencyChanges><FrequencyChange><Frequency dt:dt=""r8"">10000000</Frequency><Timestamp dt:dt=""r8"">3983962001093</Timestamp><Current dt:dt=""r8"">0</Current><DateUtc dt:dt=""string"">2024-01-13T20:49:16Z</DateUtc></FrequencyChange></FrequencyChanges></Clock>\n",2.0.10.252,2.0.10.356,2.0.10.356,Professional,1.0.0.1
Proc2,9,List10,1,9,,,,,780,3,778,778,1410,3,0,,2,,,,,,,,,,,,,,,,,,,,,,,,,,,,,,,,,,,,,,,,,DelayDiscountingTitrated Backup1,01-13-2024,15:49:16,1/13/2024 8:49:16 PM,1019,1,11,DelayDiscountingTitrated Backup1-1019-1,-1765630129,1,60.018,"<?xml version=""1.0""?>\n<Clock xmlns:dt=""urn:schemas-microsoft-com:datatypes""><Description dt:dt=""string"">E-Prime Primary Realtime Clock</Description><StartTime><Timestamp dt:dt=""int"">0</Timestamp><DateUtc dt:dt=""string"">2024-01-13T20:49:16Z</DateUtc></StartTime><FrequencyChanges><FrequencyChange><Frequency dt:dt=""r8"">10000000</Frequency><Timestamp dt:dt=""r8"">3983962001093</Timestamp><Current dt:dt=""r8"">0</Current><DateUtc dt:dt=""string"">2024-01-13T20:49:16Z</DateUtc></FrequencyChange></FrequencyChanges></Clock>\n",2.0.10.252,2.0.10.356,2.0.10.356,Professional,1.0.0.1
Proc2,10,List10,1,10,,,,,779,1,780,780,1960,1,0,,1,,,,,,,,,,,,,,,,,,,,,,,,,,,,,,,,,,,,,,,,,DelayDiscountingTitrated Backup1,01-13-2024,15:49:16,1/13/2024 8:49:16 PM,1019,1,11,DelayDiscountingTitrated Backup1-1019-1,-1765630129,1,60.018,"<?xml version=""1.0""?>\n<Clock xmlns:dt=""urn:schemas-microsoft-com:datatypes""><Description dt:dt=""string"">E-Prime Primary Realtime Clock</Description><StartTime><Timestamp dt:dt=""int"">0</Timestamp><DateUtc dt:dt=""string"">2024-01-13T20:49:16Z</DateUtc></StartTime><FrequencyChanges><FrequencyChange><Frequency dt:dt=""r8"">10000000</Frequency><Timestamp dt:dt=""r8"">3983962001093</Timestamp><Current dt:dt=""r8"">0</Current><DateUtc dt:dt=""string"">2024-01-13T20:49:16Z</DateUtc></FrequencyChange></FrequencyChanges></Clock>\n",2.0.10.252,2.0.10.356,2.0.10.356,Professional,1.0.0.1
Proc2,11,List10,1,11,,,,,779,1,780,779,4929,1,0,,,,,,,,,,,,,,,,,,,,,,,,,,,,,,,,,,,,,,,,,,,DelayDiscountingTitrated Backup1,01-13-2024,15:49:16,1/13/2024 8:49:16 PM,1019,1,11,DelayDiscountingTitrated Backup1-1019-1,-1765630129,1,60.018,"<?xml version=""1.0""?>\n<Clock xmlns:dt=""urn:schemas-microsoft-com:datatypes""><Description dt:dt=""string"">E-Prime Primary Realtime Clock</Description><StartTime><Timestamp dt:dt=""int"">0</Timestamp><DateUtc dt:dt=""string"">2024-01-13T20:49:16Z</DateUtc></StartTime><FrequencyChanges><FrequencyChange><Frequency dt:dt=""r8"">10000000</Frequency><Timestamp dt:dt=""r8"">3983962001093</Timestamp><Current dt:dt=""r8"">0</Current><DateUtc dt:dt=""string"">2024-01-13T20:49:16Z</DateUtc></FrequencyChange></FrequencyChanges></Clock>\n",2.0.10.252,2.0.10.356,2.0.10.356,Professional,1.0.0.1
discount2,,List5,,,,,,,,,,,,,,,,800,6 month,180,3,1,1,,,,,,,,,,,,,,,,,,,,,,,,,,,,,,,,,,,DelayDiscountingTitrated Backup1,01-13-2024,15:49:16,1/13/2024 8:49:16 PM,1019,1,11,DelayDiscountingTitrated Backup1-1019-1,-1765630129,1,60.018,"<?xml version=""1.0""?>\n<Clock xmlns:dt=""urn:schemas-microsoft-com:datatypes""><Description dt:dt=""string"">E-Prime Primary Realtime Clock</Description><StartTime><Timestamp dt:dt=""int"">0</Timestamp><DateUtc dt:dt=""string"">2024-01-13T20:49:16Z</DateUtc></StartTime><FrequencyChanges><FrequencyChange><Frequency dt:dt=""r8"">10000000</Frequency><Timestamp dt:dt=""r8"">3983962001093</Timestamp><Current dt:dt=""r8"">0</Current><DateUtc dt:dt=""string"">2024-01-13T20:49:16Z</DateUtc></FrequencyChange></FrequencyChanges></Clock>\n",2.0.10.252,2.0.10.356,2.0.10.356,Professional,1.0.0.1
sixmthproc,,List1,,,,,,,,,,,,,,,,,,,,,,3,1,1,1,,,,,,,,,,,,,,,,,,,,,,,,,,,,,,,DelayDiscountingTitrated Backup1,01-13-2024,15:49:16,1/13/2024 8:49:16 PM,1019,1,11,DelayDiscountingTitrated Backup1-1019-1,-1765630129,1,60.018,"<?xml version=""1.0""?>\n<Clock xmlns:dt=""urn:schemas-microsoft-com:datatypes""><Description dt:dt=""string"">E-Prime Primary Realtime Clock</Description><StartTime><Timestamp dt:dt=""int"">0</Timestamp><DateUtc dt:dt=""string"">2024-01-13T20:49:16Z</DateUtc></StartTime><FrequencyChanges><FrequencyChange><Frequency dt:dt=""r8"">10000000</Frequency><Timestamp dt:dt=""r8"">3983962001093</Timestamp><Current dt:dt=""r8"">0</Current><DateUtc dt:dt=""string"">2024-01-13T20:49:16Z</DateUtc></FrequencyChange></FrequencyChanges></Clock>\n",2.0.10.252,2.0.10.356,2.0.10.356,Professional,1.0.0.1
Init1,,List9,,,2839,3,0,,600,3,200,,,,,,,,,,,,,,,,,1,1,1,,,,,,,,,,,,,,,,,,,,,,,,,,,,DelayDiscountingTitrated Backup1,01-13-2024,15:49:16,1/13/2024 8:49:16 PM,1019,1,11,DelayDiscountingTitrated Backup1-1019-1,-1765630129,1,60.018,"<?xml version=""1.0""?>\n<Clock xmlns:dt=""urn:schemas-microsoft-com:datatypes""><Description dt:dt=""string"">E-Prime Primary Realtime Clock</Description><StartTime><Timestamp dt:dt=""int"">0</Timestamp><DateUtc dt:dt=""string"">2024-01-13T20:49:16Z</DateUtc></StartTime><FrequencyChanges><FrequencyChange><Frequency dt:dt=""r8"">10000000</Frequency><Timestamp dt:dt=""r8"">3983962001093</Timestamp><Current dt:dt=""r8"">0</Current><DateUtc dt:dt=""string"">2024-01-13T20:49:16Z</DateUtc></FrequencyChange></FrequencyChanges></Clock>\n",2.0.10.252,2.0.10.356,2.0.10.356,Professional,1.0.0.1
Proc1,,List9,,,,,,,800,3,600,600,3221,3,0,,200,,,,,,,,,,,2,1,2,,,,,,,,,,,,,,,,,,,,,,,,,,,,DelayDiscountingTitrated Backup1,01-13-2024,15:49:16,1/13/2024 8:49:16 PM,1019,1,11,DelayDiscountingTitrated Backup1-1019-1,-1765630129,1,60.018,"<?xml version=""1.0""?>\n<Clock xmlns:dt=""urn:schemas-microsoft-com:datatypes""><Description dt:dt=""string"">E-Prime Primary Realtime Clock</Description><StartTime><Timestamp dt:dt=""int"">0</Timestamp><DateUtc dt:dt=""string"">2024-01-13T20:49:16Z</DateUtc></StartTime><FrequencyChanges><FrequencyChange><Frequency dt:dt=""r8"">10000000</Frequency><Timestamp dt:dt=""r8"">3983962001093</Timestamp><Current dt:dt=""r8"">0</Current><DateUtc dt:dt=""string"">2024-01-13T20:49:16Z</DateUtc></FrequencyChange></FrequencyChanges></Clock>\n",2.0.10.252,2.0.10.356,2.0.10.356,Professional,1.0.0.1
Proc1,,List9,,,,,,,900,3,800,800,1091,3,0,,100,,,,,,,,,,,3,1,3,,,,,,,,,,,,,,,,,,,,,,,,,,,,DelayDiscountingTitrated Backup1,01-13-2024,15:49:16,1/13/2024 8:49:16 PM,1019,1,11,DelayDiscountingTitrated Backup1-1019-1,-1765630129,1,60.018,"<?xml version=""1.0""?>\n<Clock xmlns:dt=""urn:schemas-microsoft-com:datatypes""><Description dt:dt=""string"">E-Prime Primary Realtime Clock</Description><StartTime><Timestamp dt:dt=""int"">0</Timestamp><DateUtc dt:dt=""string"">2024-01-13T20:49:16Z</DateUtc></StartTime><FrequencyChanges><FrequencyChange><Frequency dt:dt=""r8"">10000000</Frequency><Timestamp dt:dt=""r8"">3983962001093</Timestamp><Current dt:dt=""r8"">0</Current><DateUtc dt:dt=""string"">2024-01-13T20:49:16Z</DateUtc></FrequencyChange></FrequencyChanges></Clock>\n",2.0.10.252,2.0.10.356,2.0.10.356,Professional,1.0.0.1
Proc1,,List9,,,,,,,950,3,900,900,5583,3,0,,50,,,,,,,,,,,4,1,4,,,,,,,,,,,,,,,,,,,,,,,,,,,,DelayDiscountingTitrated Backup1,01-13-2024,15:49:16,1/13/2024 8:49:16 PM,1019,1,11,DelayDiscountingTitrated Backup1-1019-1,-1765630129,1,60.018,"<?xml version=""1.0""?>\n<Clock xmlns:dt=""urn:schemas-microsoft-com:datatypes""><Description dt:dt=""string"">E-Prime Primary Realtime Clock</Description><StartTime><Timestamp dt:dt=""int"">0</Timestamp><DateUtc dt:dt=""string"">2024-01-13T20:49:16Z</DateUtc></StartTime><FrequencyChanges><FrequencyChange><Frequency dt:dt=""r8"">10000000</Frequency><Timestamp dt:dt=""r8"">3983962001093</Timestamp><Current dt:dt=""r8"">0</Current><DateUtc dt:dt=""string"">2024-01-13T20:49:16Z</DateUtc></FrequencyChange></FrequencyChanges></Clock>\n",2.0.10.252,2.0.10.356,2.0.10.356,Professional,1.0.0.1
Proc1,,List9,,,,,,,925,1,950,950,2119,1,0,,25,,,,,,,,,,,5,1,5,,,,,,,,,,,,,,,,,,,,,,,,,,,,DelayDiscountingTitrated Backup1,01-13-2024,15:49:16,1/13/2024 8:49:16 PM,1019,1,11,DelayDiscountingTitrated Backup1-1019-1,-1765630129,1,60.018,"<?xml version=""1.0""?>\n<Clock xmlns:dt=""urn:schemas-microsoft-com:datatypes""><Description dt:dt=""string"">E-Prime Primary Realtime Clock</Description><StartTime><Timestamp dt:dt=""int"">0</Timestamp><DateUtc dt:dt=""string"">2024-01-13T20:49:16Z</DateUtc></StartTime><FrequencyChanges><FrequencyChange><Frequency dt:dt=""r8"">10000000</Frequency><Timestamp dt:dt=""r8"">3983962001093</Timestamp><Current dt:dt=""r8"">0</Current><DateUtc dt:dt=""string"">2024-01-13T20:49:16Z</DateUtc></FrequencyChange></FrequencyChanges></Clock>\n",2.0.10.252,2.0.10.356,2.0.10.356,Professional,1.0.0.1
Proc1,,List9,,,,,,,937,3,925,925,1978,3,0,,12,,,,,,,,,,,6,1,6,,,,,,,,,,,,,,,,,,,,,,,,,,,,DelayDiscountingTitrated Backup1,01-13-2024,15:49:16,1/13/2024 8:49:16 PM,1019,1,11,DelayDiscountingTitrated Backup1-1019-1,-1765630129,1,60.018,"<?xml version=""1.0""?>\n<Clock xmlns:dt=""urn:schemas-microsoft-com:datatypes""><Description dt:dt=""string"">E-Prime Primary Realtime Clock</Description><StartTime><Timestamp dt:dt=""int"">0</Timestamp><DateUtc dt:dt=""string"">2024-01-13T20:49:16Z</DateUtc></StartTime><FrequencyChanges><FrequencyChange><Frequency dt:dt=""r8"">10000000</Frequency><Timestamp dt:dt=""r8"">3983962001093</Timestamp><Current dt:dt=""r8"">0</Current><DateUtc dt:dt=""string"">2024-01-13T20:49:16Z</DateUtc></FrequencyChange></FrequencyChanges></Clock>\n",2.0.10.252,2.0.10.356,2.0.10.356,Professional,1.0.0.1
Proc1,,List9,,,,,,,943,3,937,937,2057,3,0,,6,,,,,,,,,,,7,1,7,,,,,,,,,,,,,,,,,,,,,,,,,,,,DelayDiscountingTitrated Backup1,01-13-2024,15:49:16,1/13/2024 8:49:16 PM,1019,1,11,DelayDiscountingTitrated Backup1-1019-1,-1765630129,1,60.018,"<?xml version=""1.0""?>\n<Clock xmlns:dt=""urn:schemas-microsoft-com:datatypes""><Description dt:dt=""string"">E-Prime Primary Realtime Clock</Description><StartTime><Timestamp dt:dt=""int"">0</Timestamp><DateUtc dt:dt=""string"">2024-01-13T20:49:16Z</DateUtc></StartTime><FrequencyChanges><FrequencyChange><Frequency dt:dt=""r8"">10000000</Frequency><Timestamp dt:dt=""r8"">3983962001093</Timestamp><Current dt:dt=""r8"">0</Current><DateUtc dt:dt=""string"">2024-01-13T20:49:16Z</DateUtc></FrequencyChange></FrequencyChanges></Clock>\n",2.0.10.252,2.0.10.356,2.0.10.356,Professional,1.0.0.1
Proc1,,List9,,,,,,,940,1,943,943,958,1,0,,3,,,,,,,,,,,8,1,8,,,,,,,,,,,,,,,,,,,,,,,,,,,,DelayDiscountingTitrated Backup1,01-13-2024,15:49:16,1/13/2024 8:49:16 PM,1019,1,11,DelayDiscountingTitrated Backup1-1019-1,-1765630129,1,60.018,"<?xml version=""1.0""?>\n<Clock xmlns:dt=""urn:schemas-microsoft-com:datatypes""><Description dt:dt=""string"">E-Prime Primary Realtime Clock</Description><StartTime><Timestamp dt:dt=""int"">0</Timestamp><DateUtc dt:dt=""string"">2024-01-13T20:49:16Z</DateUtc></StartTime><FrequencyChanges><FrequencyChange><Frequency dt:dt=""r8"">10000000</Frequency><Timestamp dt:dt=""r8"">3983962001093</Timestamp><Current dt:dt=""r8"">0</Current><DateUtc dt:dt=""string"">2024-01-13T20:49:16Z</DateUtc></FrequencyChange></FrequencyChanges></Clock>\n",2.0.10.252,2.0.10.356,2.0.10.356,Professional,1.0.0.1
Proc1,,List9,,,,,,,938,1,940,940,887,1,0,,2,,,,,,,,,,,9,1,9,,,,,,,,,,,,,,,,,,,,,,,,,,,,DelayDiscountingTitrated Backup1,01-13-2024,15:49:16,1/13/2024 8:49:16 PM,1019,1,11,DelayDiscountingTitrated Backup1-1019-1,-1765630129,1,60.018,"<?xml version=""1.0""?>\n<Clock xmlns:dt=""urn:schemas-microsoft-com:datatypes""><Description dt:dt=""string"">E-Prime Primary Realtime Clock</Description><StartTime><Timestamp dt:dt=""int"">0</Timestamp><DateUtc dt:dt=""string"">2024-01-13T20:49:16Z</DateUtc></StartTime><FrequencyChanges><FrequencyChange><Frequency dt:dt=""r8"">10000000</Frequency><Timestamp dt:dt=""r8"">3983962001093</Timestamp><Current dt:dt=""r8"">0</Current><DateUtc dt:dt=""string"">2024-01-13T20:49:16Z</DateUtc></FrequencyChange></FrequencyChanges></Clock>\n",2.0.10.252,2.0.10.356,2.0.10.356,Professional,1.0.0.1
Proc1,,List9,,,,,,,939,3,938,938,1194,3,0,,1,,,,,,,,,,,10,1,10,,,,,,,,,,,,,,,,,,,,,,,,,,,,DelayDiscountingTitrated Backup1,01-13-2024,15:49:16,1/13/2024 8:49:16 PM,1019,1,11,DelayDiscountingTitrated Backup1-1019-1,-1765630129,1,60.018,"<?xml version=""1.0""?>\n<Clock xmlns:dt=""urn:schemas-microsoft-com:datatypes""><Description dt:dt=""string"">E-Prime Primary Realtime Clock</Description><StartTime><Timestamp dt:dt=""int"">0</Timestamp><DateUtc dt:dt=""string"">2024-01-13T20:49:16Z</DateUtc></StartTime><FrequencyChanges><FrequencyChange><Frequency dt:dt=""r8"">10000000</Frequency><Timestamp dt:dt=""r8"">3983962001093</Timestamp><Current dt:dt=""r8"">0</Current><DateUtc dt:dt=""string"">2024-01-13T20:49:16Z</DateUtc></FrequencyChange></FrequencyChanges></Clock>\n",2.0.10.252,2.0.10.356,2.0.10.356,Professional,1.0.0.1
Proc1,,List9,,,,,,,939,3,938,939,2433,3,0,,,,,,,,,,,,,11,1,11,,,,,,,,,,,,,,,,,,,,,,,,,,,,DelayDiscountingTitrated Backup1,01-13-2024,15:49:16,1/13/2024 8:49:16 PM,1019,1,11,DelayDiscountingTitrated Backup1-1019-1,-1765630129,1,60.018,"<?xml version=""1.0""?>\n<Clock xmlns:dt=""urn:schemas-microsoft-com:datatypes""><Description dt:dt=""string"">E-Prime Primary Realtime Clock</Description><StartTime><Timestamp dt:dt=""int"">0</Timestamp><DateUtc dt:dt=""string"">2024-01-13T20:49:16Z</DateUtc></StartTime><FrequencyChanges><FrequencyChange><Frequency dt:dt=""r8"">10000000</Frequency><Timestamp dt:dt=""r8"">3983962001093</Timestamp><Current dt:dt=""r8"">0</Current><DateUtc dt:dt=""string"">2024-01-13T20:49:16Z</DateUtc></FrequencyChange></FrequencyChanges></Clock>\n",2.0.10.252,2.0.10.356,2.0.10.356,Professional,1.0.0.1
discount1,,List4,,,,,,,,,,,,,,,,200,1 month,30,,,,,,,,,,,1,1,1,,,,,,,,,,,,,,,,,,,,,,,,,DelayDiscountingTitrated Backup1,01-13-2024,15:49:16,1/13/2024 8:49:16 PM,1019,1,11,DelayDiscountingTitrated Backup1-1019-1,-1765630129,1,60.018,"<?xml version=""1.0""?>\n<Clock xmlns:dt=""urn:schemas-microsoft-com:datatypes""><Description dt:dt=""string"">E-Prime Primary Realtime Clock</Description><StartTime><Timestamp dt:dt=""int"">0</Timestamp><DateUtc dt:dt=""string"">2024-01-13T20:49:16Z</DateUtc></StartTime><FrequencyChanges><FrequencyChange><Frequency dt:dt=""r8"">10000000</Frequency><Timestamp dt:dt=""r8"">3983962001093</Timestamp><Current dt:dt=""r8"">0</Current><DateUtc dt:dt=""string"">2024-01-13T20:49:16Z</DateUtc></FrequencyChange></FrequencyChanges></Clock>\n",2.0.10.252,2.0.10.356,2.0.10.356,Professional,1.0.0.1
onemthproc,,List1,,,,,,,,,,,,,,,,,,,,,,2,1,2,2,,,,,,,,,,,,,,,,,,,,,,,,,,,,,,,DelayDiscountingTitrated Backup1,01-13-2024,15:49:16,1/13/2024 8:49:16 PM,1019,1,11,DelayDiscountingTitrated Backup1-1019-1,-1765630129,1,60.018,"<?xml version=""1.0""?>\n<Clock xmlns:dt=""urn:schemas-microsoft-com:datatypes""><Description dt:dt=""string"">E-Prime Primary Realtime Clock</Description><StartTime><Timestamp dt:dt=""int"">0</Timestamp><DateUtc dt:dt=""string"">2024-01-13T20:49:16Z</DateUtc></StartTime><FrequencyChanges><FrequencyChange><Frequency dt:dt=""r8"">10000000</Frequency><Timestamp dt:dt=""r8"">3983962001093</Timestamp><Current dt:dt=""r8"">0</Current><DateUtc dt:dt=""string"">2024-01-13T20:49:16Z</DateUtc></FrequencyChange></FrequencyChanges></Clock>\n",2.0.10.252,2.0.10.356,2.0.10.356,Professional,1.0.0.1
Init5,,List13,,,3231,1,0,,250,1,500,,,,,,,,,,,,,,,,,,,,,,,1,1,1,,,,,,,,,,,,,,,,,,,,,,DelayDiscountingTitrated Backup1,01-13-2024,15:49:16,1/13/2024 8:49:16 PM,1019,1,11,DelayDiscountingTitrated Backup1-1019-1,-1765630129,1,60.018,"<?xml version=""1.0""?>\n<Clock xmlns:dt=""urn:schemas-microsoft-com:datatypes""><Description dt:dt=""string"">E-Prime Primary Realtime Clock</Description><StartTime><Timestamp dt:dt=""int"">0</Timestamp><DateUtc dt:dt=""string"">2024-01-13T20:49:16Z</DateUtc></StartTime><FrequencyChanges><FrequencyChange><Frequency dt:dt=""r8"">10000000</Frequency><Timestamp dt:dt=""r8"">3983962001093</Timestamp><Current dt:dt=""r8"">0</Current><DateUtc dt:dt=""string"">2024-01-13T20:49:16Z</DateUtc></FrequencyChange></FrequencyChanges></Clock>\n",2.0.10.252,2.0.10.356,2.0.10.356,Professional,1.0.0.1
Proc5,,List13,,,,,,,125,1,250,250,3677,1,0,,125,,,,,,,,,,,,,,,,,2,1,2,,,,,,,,,,,,,,,,,,,,,,DelayDiscountingTitrated Backup1,01-13-2024,15:49:16,1/13/2024 8:49:16 PM,1019,1,11,DelayDiscountingTitrated Backup1-1019-1,-1765630129,1,60.018,"<?xml version=""1.0""?>\n<Clock xmlns:dt=""urn:schemas-microsoft-com:datatypes""><Description dt:dt=""string"">E-Prime Primary Realtime Clock</Description><StartTime><Timestamp dt:dt=""int"">0</Timestamp><DateUtc dt:dt=""string"">2024-01-13T20:49:16Z</DateUtc></StartTime><FrequencyChanges><FrequencyChange><Frequency dt:dt=""r8"">10000000</Frequency><Timestamp dt:dt=""r8"">3983962001093</Timestamp><Current dt:dt=""r8"">0</Current><DateUtc dt:dt=""string"">2024-01-13T20:49:16Z</DateUtc></FrequencyChange></FrequencyChanges></Clock>\n",2.0.10.252,2.0.10.356,2.0.10.356,Professional,1.0.0.1
Proc5,,List13,,,,,,,63,1,125,125,113,1,0,,62,,,,,,,,,,,,,,,,,3,1,3,,,,,,,,,,,,,,,,,,,,,,DelayDiscountingTitrated Backup1,01-13-2024,15:49:16,1/13/2024 8:49:16 PM,1019,1,11,DelayDiscountingTitrated Backup1-1019-1,-1765630129,1,60.018,"<?xml version=""1.0""?>\n<Clock xmlns:dt=""urn:schemas-microsoft-com:datatypes""><Description dt:dt=""string"">E-Prime Primary Realtime Clock</Description><StartTime><Timestamp dt:dt=""int"">0</Timestamp><DateUtc dt:dt=""string"">2024-01-13T20:49:16Z</DateUtc></StartTime><FrequencyChanges><FrequencyChange><Frequency dt:dt=""r8"">10000000</Frequency><Timestamp dt:dt=""r8"">3983962001093</Timestamp><Current dt:dt=""r8"">0</Current><DateUtc dt:dt=""string"">2024-01-13T20:49:16Z</DateUtc></FrequencyChange></FrequencyChanges></Clock>\n",2.0.10.252,2.0.10.356,2.0.10.356,Professional,1.0.0.1
Proc5,,List13,,,,,,,31,1,63,63,219,1,0,,32,,,,,,,,,,,,,,,,,4,1,4,,,,,,,,,,,,,,,,,,,,,,DelayDiscountingTitrated Backup1,01-13-2024,15:49:16,1/13/2024 8:49:16 PM,1019,1,11,DelayDiscountingTitrated Backup1-1019-1,-1765630129,1,60.018,"<?xml version=""1.0""?>\n<Clock xmlns:dt=""urn:schemas-microsoft-com:datatypes""><Description dt:dt=""string"">E-Prime Primary Realtime Clock</Description><StartTime><Timestamp dt:dt=""int"">0</Timestamp><DateUtc dt:dt=""string"">2024-01-13T20:49:16Z</DateUtc></StartTime><FrequencyChanges><FrequencyChange><Frequency dt:dt=""r8"">10000000</Frequency><Timestamp dt:dt=""r8"">3983962001093</Timestamp><Current dt:dt=""r8"">0</Current><DateUtc dt:dt=""string"">2024-01-13T20:49:16Z</DateUtc></FrequencyChange></FrequencyChanges></Clock>\n",2.0.10.252,2.0.10.356,2.0.10.356,Professional,1.0.0.1
Proc5,,List13,,,,,,,47,3,31,31,1305,3,0,,16,,,,,,,,,,,,,,,,,5,1,5,,,,,,,,,,,,,,,,,,,,,,DelayDiscountingTitrated Backup1,01-13-2024,15:49:16,1/13/2024 8:49:16 PM,1019,1,11,DelayDiscountingTitrated Backup1-1019-1,-1765630129,1,60.018,"<?xml version=""1.0""?>\n<Clock xmlns:dt=""urn:schemas-microsoft-com:datatypes""><Description dt:dt=""string"">E-Prime Primary Realtime Clock</Description><StartTime><Timestamp dt:dt=""int"">0</Timestamp><DateUtc dt:dt=""string"">2024-01-13T20:49:16Z</DateUtc></StartTime><FrequencyChanges><FrequencyChange><Frequency dt:dt=""r8"">10000000</Frequency><Timestamp dt:dt=""r8"">3983962001093</Timestamp><Current dt:dt=""r8"">0</Current><DateUtc dt:dt=""string"">2024-01-13T20:49:16Z</DateUtc></FrequencyChange></FrequencyChanges></Clock>\n",2.0.10.252,2.0.10.356,2.0.10.356,Professional,1.0.0.1
Proc5,,List13,,,,,,,55,3,47,47,652,3,0,,8,,,,,,,,,,,,,,,,,6,1,6,,,,,,,,,,,,,,,,,,,,,,DelayDiscountingTitrated Backup1,01-13-2024,15:49:16,1/13/2024 8:49:16 PM,1019,1,11,DelayDiscountingTitrated Backup1-1019-1,-1765630129,1,60.018,"<?xml version=""1.0""?>\n<Clock xmlns:dt=""urn:schemas-microsoft-com:datatypes""><Description dt:dt=""string"">E-Prime Primary Realtime Clock</Description><StartTime><Timestamp dt:dt=""int"">0</Timestamp><DateUtc dt:dt=""string"">2024-01-13T20:49:16Z</DateUtc></StartTime><FrequencyChanges><FrequencyChange><Frequency dt:dt=""r8"">10000000</Frequency><Timestamp dt:dt=""r8"">3983962001093</Timestamp><Current dt:dt=""r8"">0</Current><DateUtc dt:dt=""string"">2024-01-13T20:49:16Z</DateUtc></FrequencyChange></FrequencyChanges></Clock>\n",2.0.10.252,2.0.10.356,2.0.10.356,Professional,1.0.0.1
Proc5,,List13,,,,,,,59,3,55,55,120,3,0,,4,,,,,,,,,,,,,,,,,7,1,7,,,,,,,,,,,,,,,,,,,,,,DelayDiscountingTitrated Backup1,01-13-2024,15:49:16,1/13/2024 8:49:16 PM,1019,1,11,DelayDiscountingTitrated Backup1-1019-1,-1765630129,1,60.018,"<?xml version=""1.0""?>\n<Clock xmlns:dt=""urn:schemas-microsoft-com:datatypes""><Description dt:dt=""string"">E-Prime Primary Realtime Clock</Description><StartTime><Timestamp dt:dt=""int"">0</Timestamp><DateUtc dt:dt=""string"">2024-01-13T20:49:16Z</DateUtc></StartTime><FrequencyChanges><FrequencyChange><Frequency dt:dt=""r8"">10000000</Frequency><Timestamp dt:dt=""r8"">3983962001093</Timestamp><Current dt:dt=""r8"">0</Current><DateUtc dt:dt=""string"">2024-01-13T20:49:16Z</DateUtc></FrequencyChange></FrequencyChanges></Clock>\n",2.0.10.252,2.0.10.356,2.0.10.356,Professional,1.0.0.1
Proc5,,List13,,,,,,,61,3,59,59,74,3,0,,2,,,,,,,,,,,,,,,,,8,1,8,,,,,,,,,,,,,,,,,,,,,,DelayDiscountingTitrated Backup1,01-13-2024,15:49:16,1/13/2024 8:49:16 PM,1019,1,11,DelayDiscountingTitrated Backup1-1019-1,-1765630129,1,60.018,"<?xml version=""1.0""?>\n<Clock xmlns:dt=""urn:schemas-microsoft-com:datatypes""><Description dt:dt=""string"">E-Prime Primary Realtime Clock</Description><StartTime><Timestamp dt:dt=""int"">0</Timestamp><DateUtc dt:dt=""string"">2024-01-13T20:49:16Z</DateUtc></StartTime><FrequencyChanges><FrequencyChange><Frequency dt:dt=""r8"">10000000</Frequency><Timestamp dt:dt=""r8"">3983962001093</Timestamp><Current dt:dt=""r8"">0</Current><DateUtc dt:dt=""string"">2024-01-13T20:49:16Z</DateUtc></FrequencyChange></FrequencyChanges></Clock>\n",2.0.10.252,2.0.10.356,2.0.10.356,Professional,1.0.0.1
Proc5,,List13,,,,,,,62,3,61,61,166,3,0,,1,,,,,,,,,,,,,,,,,9,1,9,,,,,,,,,,,,,,,,,,,,,,DelayDiscountingTitrated Backup1,01-13-2024,15:49:16,1/13/2024 8:49:16 PM,1019,1,11,DelayDiscountingTitrated Backup1-1019-1,-1765630129,1,60.018,"<?xml version=""1.0""?>\n<Clock xmlns:dt=""urn:schemas-microsoft-com:datatypes""><Description dt:dt=""string"">E-Prime Primary Realtime Clock</Description><StartTime><Timestamp dt:dt=""int"">0</Timestamp><DateUtc dt:dt=""string"">2024-01-13T20:49:16Z</DateUtc></StartTime><FrequencyChanges><FrequencyChange><Frequency dt:dt=""r8"">10000000</Frequency><Timestamp dt:dt=""r8"">3983962001093</Timestamp><Current dt:dt=""r8"">0</Current><DateUtc dt:dt=""string"">2024-01-13T20:49:16Z</DateUtc></FrequencyChange></FrequencyChanges></Clock>\n",2.0.10.252,2.0.10.356,2.0.10.356,Professional,1.0.0.1
Proc5,,List13,,,,,,,62,3,61,62,157,3,0,,,,,,,,,,,,,,,,,,,10,1,10,,,,,,,,,,,,,,,,,,,,,,DelayDiscountingTitrated Backup1,01-13-2024,15:49:16,1/13/2024 8:49:16 PM,1019,1,11,DelayDiscountingTitrated Backup1-1019-1,-1765630129,1,60.018,"<?xml version=""1.0""?>\n<Clock xmlns:dt=""urn:schemas-microsoft-com:datatypes""><Description dt:dt=""string"">E-Prime Primary Realtime Clock</Description><StartTime><Timestamp dt:dt=""int"">0</Timestamp><DateUtc dt:dt=""string"">2024-01-13T20:49:16Z</DateUtc></StartTime><FrequencyChanges><FrequencyChange><Frequency dt:dt=""r8"">10000000</Frequency><Timestamp dt:dt=""r8"">3983962001093</Timestamp><Current dt:dt=""r8"">0</Current><DateUtc dt:dt=""string"">2024-01-13T20:49:16Z</DateUtc></FrequencyChange></FrequencyChanges></Clock>\n",2.0.10.252,2.0.10.356,2.0.10.356,Professional,1.0.0.1
discount5,,List8,,,,,,,,,,,,,,,,500,15 years,5475,,,,,,,,,,,,,,,,,2,2,1,,,,,,,,,,,,,,,,,,,DelayDiscountingTitrated Backup1,01-13-2024,15:49:16,1/13/2024 8:49:16 PM,1019,1,11,DelayDiscountingTitrated Backup1-1019-1,-1765630129,1,60.018,"<?xml version=""1.0""?>\n<Clock xmlns:dt=""urn:schemas-microsoft-com:datatypes""><Description dt:dt=""string"">E-Prime Primary Realtime Clock</Description><StartTime><Timestamp dt:dt=""int"">0</Timestamp><DateUtc dt:dt=""string"">2024-01-13T20:49:16Z</DateUtc></StartTime><FrequencyChanges><FrequencyChange><Frequency dt:dt=""r8"">10000000</Frequency><Timestamp dt:dt=""r8"">3983962001093</Timestamp><Current dt:dt=""r8"">0</Current><DateUtc dt:dt=""string"">2024-01-13T20:49:16Z</DateUtc></FrequencyChange></FrequencyChanges></Clock>\n",2.0.10.252,2.0.10.356,2.0.10.356,Professional,1.0.0.1
fifteenyearproc,,List1,,,,,,,,,,,,,,,,,,,,,,6,1,3,3,,,,,,,,,,,,,,,,,,,,,,,,,,,,,,,DelayDiscountingTitrated Backup1,01-13-2024,15:49:16,1/13/2024 8:49:16 PM,1019,1,11,DelayDiscountingTitrated Backup1-1019-1,-1765630129,1,60.018,"<?xml version=""1.0""?>\n<Clock xmlns:dt=""urn:schemas-microsoft-com:datatypes""><Description dt:dt=""string"">E-Prime Primary Realtime Clock</Description><StartTime><Timestamp dt:dt=""int"">0</Timestamp><DateUtc dt:dt=""string"">2024-01-13T20:49:16Z</DateUtc></StartTime><FrequencyChanges><FrequencyChange><Frequency dt:dt=""r8"">10000000</Frequency><Timestamp dt:dt=""r8"">3983962001093</Timestamp><Current dt:dt=""r8"">0</Current><DateUtc dt:dt=""string"">2024-01-13T20:49:16Z</DateUtc></FrequencyChange></FrequencyChanges></Clock>\n",2.0.10.252,2.0.10.356,2.0.10.356,Professional,1.0.0.1
Init3,,List11,,,5984,1,0,,400,1,800,,,,,,,,,,,,,,,,,,,,,,,,,,,,,1,1,1,,,,,,,,,,,,,,,,DelayDiscountingTitrated Backup1,01-13-2024,15:49:16,1/13/2024 8:49:16 PM,1019,1,11,DelayDiscountingTitrated Backup1-1019-1,-1765630129,1,60.018,"<?xml version=""1.0""?>\n<Clock xmlns:dt=""urn:schemas-microsoft-com:datatypes""><Description dt:dt=""string"">E-Prime Primary Realtime Clock</Description><StartTime><Timestamp dt:dt=""int"">0</Timestamp><DateUtc dt:dt=""string"">2024-01-13T20:49:16Z</DateUtc></StartTime><FrequencyChanges><FrequencyChange><Frequency dt:dt=""r8"">10000000</Frequency><Timestamp dt:dt=""r8"">3983962001093</Timestamp><Current dt:dt=""r8"">0</Current><DateUtc dt:dt=""string"">2024-01-13T20:49:16Z</DateUtc></FrequencyChange></FrequencyChanges></Clock>\n",2.0.10.252,2.0.10.356,2.0.10.356,Professional,1.0.0.1
Proc3,,List11,,,,,,,600,3,400,400,1432,3,0,,200,,,,,,,,,,,,,,,,,,,,,,,2,1,2,,,,,,,,,,,,,,,,DelayDiscountingTitrated Backup1,01-13-2024,15:49:16,1/13/2024 8:49:16 PM,1019,1,11,DelayDiscountingTitrated Backup1-1019-1,-1765630129,1,60.018,"<?xml version=""1.0""?>\n<Clock xmlns:dt=""urn:schemas-microsoft-com:datatypes""><Description dt:dt=""string"">E-Prime Primary Realtime Clock</Description><StartTime><Timestamp dt:dt=""int"">0</Timestamp><DateUtc dt:dt=""string"">2024-01-13T20:49:16Z</DateUtc></StartTime><FrequencyChanges><FrequencyChange><Frequency dt:dt=""r8"">10000000</Frequency><Timestamp dt:dt=""r8"">3983962001093</Timestamp><Current dt:dt=""r8"">0</Current><DateUtc dt:dt=""string"">2024-01-13T20:49:16Z</DateUtc></FrequencyChange></FrequencyChanges></Clock>\n",2.0.10.252,2.0.10.356,2.0.10.356,Professional,1.0.0.1
Proc3,,List11,,,,,,,700,3,600,600,4374,3,0,,100,,,,,,,,,,,,,,,,,,,,,,,3,1,3,,,,,,,,,,,,,,,,DelayDiscountingTitrated Backup1,01-13-2024,15:49:16,1/13/2024 8:49:16 PM,1019,1,11,DelayDiscountingTitrated Backup1-1019-1,-1765630129,1,60.018,"<?xml version=""1.0""?>\n<Clock xmlns:dt=""urn:schemas-microsoft-com:datatypes""><Description dt:dt=""string"">E-Prime Primary Realtime Clock</Description><StartTime><Timestamp dt:dt=""int"">0</Timestamp><DateUtc dt:dt=""string"">2024-01-13T20:49:16Z</DateUtc></StartTime><FrequencyChanges><FrequencyChange><Frequency dt:dt=""r8"">10000000</Frequency><Timestamp dt:dt=""r8"">3983962001093</Timestamp><Current dt:dt=""r8"">0</Current><DateUtc dt:dt=""string"">2024-01-13T20:49:16Z</DateUtc></FrequencyChange></FrequencyChanges></Clock>\n",2.0.10.252,2.0.10.356,2.0.10.356,Professional,1.0.0.1
Proc3,,List11,,,,,,,750,3,700,700,1063,3,0,,50,,,,,,,,,,,,,,,,,,,,,,,4,1,4,,,,,,,,,,,,,,,,DelayDiscountingTitrated Backup1,01-13-2024,15:49:16,1/13/2024 8:49:16 PM,1019,1,11,DelayDiscountingTitrated Backup1-1019-1,-1765630129,1,60.018,"<?xml version=""1.0""?>\n<Clock xmlns:dt=""urn:schemas-microsoft-com:datatypes""><Description dt:dt=""string"">E-Prime Primary Realtime Clock</Description><StartTime><Timestamp dt:dt=""int"">0</Timestamp><DateUtc dt:dt=""string"">2024-01-13T20:49:16Z</DateUtc></StartTime><FrequencyChanges><FrequencyChange><Frequency dt:dt=""r8"">10000000</Frequency><Timestamp dt:dt=""r8"">3983962001093</Timestamp><Current dt:dt=""r8"">0</Current><DateUtc dt:dt=""string"">2024-01-13T20:49:16Z</DateUtc></FrequencyChange></FrequencyChanges></Clock>\n",2.0.10.252,2.0.10.356,2.0.10.356,Professional,1.0.0.1
Proc3,,List11,,,,,,,775,3,750,750,3251,3,0,,25,,,,,,,,,,,,,,,,,,,,,,,5,1,5,,,,,,,,,,,,,,,,DelayDiscountingTitrated Backup1,01-13-2024,15:49:16,1/13/2024 8:49:16 PM,1019,1,11,DelayDiscountingTitrated Backup1-1019-1,-1765630129,1,60.018,"<?xml version=""1.0""?>\n<Clock xmlns:dt=""urn:schemas-microsoft-com:datatypes""><Description dt:dt=""string"">E-Prime Primary Realtime Clock</Description><StartTime><Timestamp dt:dt=""int"">0</Timestamp><DateUtc dt:dt=""string"">2024-01-13T20:49:16Z</DateUtc></StartTime><FrequencyChanges><FrequencyChange><Frequency dt:dt=""r8"">10000000</Frequency><Timestamp dt:dt=""r8"">3983962001093</Timestamp><Current dt:dt=""r8"">0</Current><DateUtc dt:dt=""string"">2024-01-13T20:49:16Z</DateUtc></FrequencyChange></FrequencyChanges></Clock>\n",2.0.10.252,2.0.10.356,2.0.10.356,Professional,1.0.0.1
Proc3,,List11,,,,,,,787,3,775,775,592,3,0,,12,,,,,,,,,,,,,,,,,,,,,,,6,1,6,,,,,,,,,,,,,,,,DelayDiscountingTitrated Backup1,01-13-2024,15:49:16,1/13/2024 8:49:16 PM,1019,1,11,DelayDiscountingTitrated Backup1-1019-1,-1765630129,1,60.018,"<?xml version=""1.0""?>\n<Clock xmlns:dt=""urn:schemas-microsoft-com:datatypes""><Description dt:dt=""string"">E-Prime Primary Realtime Clock</Description><StartTime><Timestamp dt:dt=""int"">0</Timestamp><DateUtc dt:dt=""string"">2024-01-13T20:49:16Z</DateUtc></StartTime><FrequencyChanges><FrequencyChange><Frequency dt:dt=""r8"">10000000</Frequency><Timestamp dt:dt=""r8"">3983962001093</Timestamp><Current dt:dt=""r8"">0</Current><DateUtc dt:dt=""string"">2024-01-13T20:49:16Z</DateUtc></FrequencyChange></FrequencyChanges></Clock>\n",2.0.10.252,2.0.10.356,2.0.10.356,Professional,1.0.0.1
Proc3,,List11,,,,,,,793,3,787,787,1175,3,0,,6,,,,,,,,,,,,,,,,,,,,,,,7,1,7,,,,,,,,,,,,,,,,DelayDiscountingTitrated Backup1,01-13-2024,15:49:16,1/13/2024 8:49:16 PM,1019,1,11,DelayDiscountingTitrated Backup1-1019-1,-1765630129,1,60.018,"<?xml version=""1.0""?>\n<Clock xmlns:dt=""urn:schemas-microsoft-com:datatypes""><Description dt:dt=""string"">E-Prime Primary Realtime Clock</Description><StartTime><Timestamp dt:dt=""int"">0</Timestamp><DateUtc dt:dt=""string"">2024-01-13T20:49:16Z</DateUtc></StartTime><FrequencyChanges><FrequencyChange><Frequency dt:dt=""r8"">10000000</Frequency><Timestamp dt:dt=""r8"">3983962001093</Timestamp><Current dt:dt=""r8"">0</Current><DateUtc dt:dt=""string"">2024-01-13T20:49:16Z</DateUtc></FrequencyChange></FrequencyChanges></Clock>\n",2.0.10.252,2.0.10.356,2.0.10.356,Professional,1.0.0.1
Proc3,,List11,,,,,,,796,3,793,793,623,3,0,,3,,,,,,,,,,,,,,,,,,,,,,,8,1,8,,,,,,,,,,,,,,,,DelayDiscountingTitrated Backup1,01-13-2024,15:49:16,1/13/2024 8:49:16 PM,1019,1,11,DelayDiscountingTitrated Backup1-1019-1,-1765630129,1,60.018,"<?xml version=""1.0""?>\n<Clock xmlns:dt=""urn:schemas-microsoft-com:datatypes""><Description dt:dt=""string"">E-Prime Primary Realtime Clock</Description><StartTime><Timestamp dt:dt=""int"">0</Timestamp><DateUtc dt:dt=""string"">2024-01-13T20:49:16Z</DateUtc></StartTime><FrequencyChanges><FrequencyChange><Frequency dt:dt=""r8"">10000000</Frequency><Timestamp dt:dt=""r8"">3983962001093</Timestamp><Current dt:dt=""r8"">0</Current><DateUtc dt:dt=""string"">2024-01-13T20:49:16Z</DateUtc></FrequencyChange></FrequencyChanges></Clock>\n",2.0.10.252,2.0.10.356,2.0.10.356,Professional,1.0.0.1
Proc3,,List11,,,,,,,794,1,796,796,1037,1,0,,2,,,,,,,,,,,,,,,,,,,,,,,9,1,9,,,,,,,,,,,,,,,,DelayDiscountingTitrated Backup1,01-13-2024,15:49:16,1/13/2024 8:49:16 PM,1019,1,11,DelayDiscountingTitrated Backup1-1019-1,-1765630129,1,60.018,"<?xml version=""1.0""?>\n<Clock xmlns:dt=""urn:schemas-microsoft-com:datatypes""><Description dt:dt=""string"">E-Prime Primary Realtime Clock</Description><StartTime><Timestamp dt:dt=""int"">0</Timestamp><DateUtc dt:dt=""string"">2024-01-13T20:49:16Z</DateUtc></StartTime><FrequencyChanges><FrequencyChange><Frequency dt:dt=""r8"">10000000</Frequency><Timestamp dt:dt=""r8"">3983962001093</Timestamp><Current dt:dt=""r8"">0</Current><DateUtc dt:dt=""string"">2024-01-13T20:49:16Z</DateUtc></FrequencyChange></FrequencyChanges></Clock>\n",2.0.10.252,2.0.10.356,2.0.10.356,Professional,1.0.0.1
Proc3,,List11,,,,,,,793,1,794,794,2354,1,0,,1,,,,,,,,,,,,,,,,,,,,,,,10,1,10,,,,,,,,,,,,,,,,DelayDiscountingTitrated Backup1,01-13-2024,15:49:16,1/13/2024 8:49:16 PM,1019,1,11,DelayDiscountingTitrated Backup1-1019-1,-1765630129,1,60.018,"<?xml version=""1.0""?>\n<Clock xmlns:dt=""urn:schemas-microsoft-com:datatypes""><Description dt:dt=""string"">E-Prime Primary Realtime Clock</Description><StartTime><Timestamp dt:dt=""int"">0</Timestamp><DateUtc dt:dt=""string"">2024-01-13T20:49:16Z</DateUtc></StartTime><FrequencyChanges><FrequencyChange><Frequency dt:dt=""r8"">10000000</Frequency><Timestamp dt:dt=""r8"">3983962001093</Timestamp><Current dt:dt=""r8"">0</Current><DateUtc dt:dt=""string"">2024-01-13T20:49:16Z</DateUtc></FrequencyChange></FrequencyChanges></Clock>\n",2.0.10.252,2.0.10.356,2.0.10.356,Professional,1.0.0.1
Proc3,,List11,,,,,,,793,1,794,793,668,1,0,,,,,,,,,,,,,,,,,,,,,,,,,11,1,11,,,,,,,,,,,,,,,,DelayDiscountingTitrated Backup1,01-13-2024,15:49:16,1/13/2024 8:49:16 PM,1019,1,11,DelayDiscountingTitrated Backup1-1019-1,-1765630129,1,60.018,"<?xml version=""1.0""?>\n<Clock xmlns:dt=""urn:schemas-microsoft-com:datatypes""><Description dt:dt=""string"">E-Prime Primary Realtime Clock</Description><StartTime><Timestamp dt:dt=""int"">0</Timestamp><DateUtc dt:dt=""string"">2024-01-13T20:49:16Z</DateUtc></StartTime><FrequencyChanges><FrequencyChange><Frequency dt:dt=""r8"">10000000</Frequency><Timestamp dt:dt=""r8"">3983962001093</Timestamp><Current dt:dt=""r8"">0</Current><DateUtc dt:dt=""string"">2024-01-13T20:49:16Z</DateUtc></FrequencyChange></FrequencyChanges></Clock>\n",2.0.10.252,2.0.10.356,2.0.10.356,Professional,1.0.0.1
discount3,,List6,,,,,,,,,,,,,,,,800,1 year,365,,,,,,,,,,,,,,,,,,,,,,,3,1,1,,,,,,,,,,,,,DelayDiscountingTitrated Backup1,01-13-2024,15:49:16,1/13/2024 8:49:16 PM,1019,1,11,DelayDiscountingTitrated Backup1-1019-1,-1765630129,1,60.018,"<?xml version=""1.0""?>\n<Clock xmlns:dt=""urn:schemas-microsoft-com:datatypes""><Description dt:dt=""string"">E-Prime Primary Realtime Clock</Description><StartTime><Timestamp dt:dt=""int"">0</Timestamp><DateUtc dt:dt=""string"">2024-01-13T20:49:16Z</DateUtc></StartTime><FrequencyChanges><FrequencyChange><Frequency dt:dt=""r8"">10000000</Frequency><Timestamp dt:dt=""r8"">3983962001093</Timestamp><Current dt:dt=""r8"">0</Current><DateUtc dt:dt=""string"">2024-01-13T20:49:16Z</DateUtc></FrequencyChange></FrequencyChanges></Clock>\n",2.0.10.252,2.0.10.356,2.0.10.356,Professional,1.0.0.1
oneyearproc,,List1,,,,,,,,,,,,,,,,,,,,,,4,1,4,4,,,,,,,,,,,,,,,,,,,,,,,,,,,,,,,DelayDiscountingTitrated Backup1,01-13-2024,15:49:16,1/13/2024 8:49:16 PM,1019,1,11,DelayDiscountingTitrated Backup1-1019-1,-1765630129,1,60.018,"<?xml version=""1.0""?>\n<Clock xmlns:dt=""urn:schemas-microsoft-com:datatypes""><Description dt:dt=""string"">E-Prime Primary Realtime Clock</Description><StartTime><Timestamp dt:dt=""int"">0</Timestamp><DateUtc dt:dt=""string"">2024-01-13T20:49:16Z</DateUtc></StartTime><FrequencyChanges><FrequencyChange><Frequency dt:dt=""r8"">10000000</Frequency><Timestamp dt:dt=""r8"">3983962001093</Timestamp><Current dt:dt=""r8"">0</Current><DateUtc dt:dt=""string"">2024-01-13T20:49:16Z</DateUtc></FrequencyChange></FrequencyChanges></Clock>\n",2.0.10.252,2.0.10.356,2.0.10.356,Professional,1.0.0.1
TrialProcInit,,List2,,,2271,3,0,,900,3,800,,,,,,,,,,,,,,,,,,,,,,,,,,,,,,,,,,,1,1,1,,,,,,,,,,DelayDiscountingTitrated Backup1,01-13-2024,15:49:16,1/13/2024 8:49:16 PM,1019,1,11,DelayDiscountingTitrated Backup1-1019-1,-1765630129,1,60.018,"<?xml version=""1.0""?>\n<Clock xmlns:dt=""urn:schemas-microsoft-com:datatypes""><Description dt:dt=""string"">E-Prime Primary Realtime Clock</Description><StartTime><Timestamp dt:dt=""int"">0</Timestamp><DateUtc dt:dt=""string"">2024-01-13T20:49:16Z</DateUtc></StartTime><FrequencyChanges><FrequencyChange><Frequency dt:dt=""r8"">10000000</Frequency><Timestamp dt:dt=""r8"">3983962001093</Timestamp><Current dt:dt=""r8"">0</Current><DateUtc dt:dt=""string"">2024-01-13T20:49:16Z</DateUtc></FrequencyChange></FrequencyChanges></Clock>\n",2.0.10.252,2.0.10.356,2.0.10.356,Professional,1.0.0.1
TrialProc,,List2,,,,,,,950,3,900,900,372,3,0,,50,,,,,,,,,,,,,,,,,,,,,,,,,,,,,2,1,2,,,,,,,,,,DelayDiscountingTitrated Backup1,01-13-2024,15:49:16,1/13/2024 8:49:16 PM,1019,1,11,DelayDiscountingTitrated Backup1-1019-1,-1765630129,1,60.018,"<?xml version=""1.0""?>\n<Clock xmlns:dt=""urn:schemas-microsoft-com:datatypes""><Description dt:dt=""string"">E-Prime Primary Realtime Clock</Description><StartTime><Timestamp dt:dt=""int"">0</Timestamp><DateUtc dt:dt=""string"">2024-01-13T20:49:16Z</DateUtc></StartTime><FrequencyChanges><FrequencyChange><Frequency dt:dt=""r8"">10000000</Frequency><Timestamp dt:dt=""r8"">3983962001093</Timestamp><Current dt:dt=""r8"">0</Current><DateUtc dt:dt=""string"">2024-01-13T20:49:16Z</DateUtc></FrequencyChange></FrequencyChanges></Clock>\n",2.0.10.252,2.0.10.356,2.0.10.356,Professional,1.0.0.1
TrialProc,,List2,,,,,,,975,3,950,950,147,3,0,,25,,,,,,,,,,,,,,,,,,,,,,,,,,,,,3,1,3,,,,,,,,,,DelayDiscountingTitrated Backup1,01-13-2024,15:49:16,1/13/2024 8:49:16 PM,1019,1,11,DelayDiscountingTitrated Backup1-1019-1,-1765630129,1,60.018,"<?xml version=""1.0""?>\n<Clock xmlns:dt=""urn:schemas-microsoft-com:datatypes""><Description dt:dt=""string"">E-Prime Primary Realtime Clock</Description><StartTime><Timestamp dt:dt=""int"">0</Timestamp><DateUtc dt:dt=""string"">2024-01-13T20:49:16Z</DateUtc></StartTime><FrequencyChanges><FrequencyChange><Frequency dt:dt=""r8"">10000000</Frequency><Timestamp dt:dt=""r8"">3983962001093</Timestamp><Current dt:dt=""r8"">0</Current><DateUtc dt:dt=""string"">2024-01-13T20:49:16Z</DateUtc></FrequencyChange></FrequencyChanges></Clock>\n",2.0.10.252,2.0.10.356,2.0.10.356,Professional,1.0.0.1
TrialProc,,List2,,,,,,,987,3,975,975,4,3,0,,12,,,,,,,,,,,,,,,,,,,,,,,,,,,,,4,1,4,,,,,,,,,,DelayDiscountingTitrated Backup1,01-13-2024,15:49:16,1/13/2024 8:49:16 PM,1019,1,11,DelayDiscountingTitrated Backup1-1019-1,-1765630129,1,60.018,"<?xml version=""1.0""?>\n<Clock xmlns:dt=""urn:schemas-microsoft-com:datatypes""><Description dt:dt=""string"">E-Prime Primary Realtime Clock</Description><StartTime><Timestamp dt:dt=""int"">0</Timestamp><DateUtc dt:dt=""string"">2024-01-13T20:49:16Z</DateUtc></StartTime><FrequencyChanges><FrequencyChange><Frequency dt:dt=""r8"">10000000</Frequency><Timestamp dt:dt=""r8"">3983962001093</Timestamp><Current dt:dt=""r8"">0</Current><DateUtc dt:dt=""string"">2024-01-13T20:49:16Z</DateUtc></FrequencyChange></FrequencyChanges></Clock>\n",2.0.10.252,2.0.10.356,2.0.10.356,Professional,1.0.0.1
TrialProc,,List2,,,,,,,993,3,987,987,106,3,0,,6,,,,,,,,,,,,,,,,,,,,,,,,,,,,,5,1,5,,,,,,,,,,DelayDiscountingTitrated Backup1,01-13-2024,15:49:16,1/13/2024 8:49:16 PM,1019,1,11,DelayDiscountingTitrated Backup1-1019-1,-1765630129,1,60.018,"<?xml version=""1.0""?>\n<Clock xmlns:dt=""urn:schemas-microsoft-com:datatypes""><Description dt:dt=""string"">E-Prime Primary Realtime Clock</Description><StartTime><Timestamp dt:dt=""int"">0</Timestamp><DateUtc dt:dt=""string"">2024-01-13T20:49:16Z</DateUtc></StartTime><FrequencyChanges><FrequencyChange><Frequency dt:dt=""r8"">10000000</Frequency><Timestamp dt:dt=""r8"">3983962001093</Timestamp><Current dt:dt=""r8"">0</Current><DateUtc dt:dt=""string"">2024-01-13T20:49:16Z</DateUtc></FrequencyChange></FrequencyChanges></Clock>\n",2.0.10.252,2.0.10.356,2.0.10.356,Professional,1.0.0.1
TrialProc,,List2,,,,,,,997,3,993,993,301,3,0,,4,,,,,,,,,,,,,,,,,,,,,,,,,,,,,6,1,6,,,,,,,,,,DelayDiscountingTitrated Backup1,01-13-2024,15:49:16,1/13/2024 8:49:16 PM,1019,1,11,DelayDiscountingTitrated Backup1-1019-1,-1765630129,1,60.018,"<?xml version=""1.0""?>\n<Clock xmlns:dt=""urn:schemas-microsoft-com:datatypes""><Description dt:dt=""string"">E-Prime Primary Realtime Clock</Description><StartTime><Timestamp dt:dt=""int"">0</Timestamp><DateUtc dt:dt=""string"">2024-01-13T20:49:16Z</DateUtc></StartTime><FrequencyChanges><FrequencyChange><Frequency dt:dt=""r8"">10000000</Frequency><Timestamp dt:dt=""r8"">3983962001093</Timestamp><Current dt:dt=""r8"">0</Current><DateUtc dt:dt=""string"">2024-01-13T20:49:16Z</DateUtc></FrequencyChange></FrequencyChanges></Clock>\n",2.0.10.252,2.0.10.356,2.0.10.356,Professional,1.0.0.1
TrialProc,,List2,,,,,,,995,1,997,997,1183,1,0,,2,,,,,,,,,,,,,,,,,,,,,,,,,,,,,7,1,7,,,,,,,,,,DelayDiscountingTitrated Backup1,01-13-2024,15:49:16,1/13/2024 8:49:16 PM,1019,1,11,DelayDiscountingTitrated Backup1-1019-1,-1765630129,1,60.018,"<?xml version=""1.0""?>\n<Clock xmlns:dt=""urn:schemas-microsoft-com:datatypes""><Description dt:dt=""string"">E-Prime Primary Realtime Clock</Description><StartTime><Timestamp dt:dt=""int"">0</Timestamp><DateUtc dt:dt=""string"">2024-01-13T20:49:16Z</DateUtc></StartTime><FrequencyChanges><FrequencyChange><Frequency dt:dt=""r8"">10000000</Frequency><Timestamp dt:dt=""r8"">3983962001093</Timestamp><Current dt:dt=""r8"">0</Current><DateUtc dt:dt=""string"">2024-01-13T20:49:16Z</DateUtc></FrequencyChange></FrequencyChanges></Clock>\n",2.0.10.252,2.0.10.356,2.0.10.356,Professional,1.0.0.1
TrialProc,,List2,,,,,,,994,1,995,995,1030,1,0,,1,,,,,,,,,,,,,,,,,,,,,,,,,,,,,8,1,8,,,,,,,,,,DelayDiscountingTitrated Backup1,01-13-2024,15:49:16,1/13/2024 8:49:16 PM,1019,1,11,DelayDiscountingTitrated Backup1-1019-1,-1765630129,1,60.018,"<?xml version=""1.0""?>\n<Clock xmlns:dt=""urn:schemas-microsoft-com:datatypes""><Description dt:dt=""string"">E-Prime Primary Realtime Clock</Description><StartTime><Timestamp dt:dt=""int"">0</Timestamp><DateUtc dt:dt=""string"">2024-01-13T20:49:16Z</DateUtc></StartTime><FrequencyChanges><FrequencyChange><Frequency dt:dt=""r8"">10000000</Frequency><Timestamp dt:dt=""r8"">3983962001093</Timestamp><Current dt:dt=""r8"">0</Current><DateUtc dt:dt=""string"">2024-01-13T20:49:16Z</DateUtc></FrequencyChange></FrequencyChanges></Clock>\n",2.0.10.252,2.0.10.356,2.0.10.356,Professional,1.0.0.1
TrialProc,,List2,,,,,,,994,1,995,994,964,1,0,,,,,,,,,,,,,,,,,,,,,,,,,,,,,,,9,1,9,,,,,,,,,,DelayDiscountingTitrated Backup1,01-13-2024,15:49:16,1/13/2024 8:49:16 PM,1019,1,11,DelayDiscountingTitrated Backup1-1019-1,-1765630129,1,60.018,"<?xml version=""1.0""?>\n<Clock xmlns:dt=""urn:schemas-microsoft-com:datatypes""><Description dt:dt=""string"">E-Prime Primary Realtime Clock</Description><StartTime><Timestamp dt:dt=""int"">0</Timestamp><DateUtc dt:dt=""string"">2024-01-13T20:49:16Z</DateUtc></StartTime><FrequencyChanges><FrequencyChange><Frequency dt:dt=""r8"">10000000</Frequency><Timestamp dt:dt=""r8"">3983962001093</Timestamp><Current dt:dt=""r8"">0</Current><DateUtc dt:dt=""string"">2024-01-13T20:49:16Z</DateUtc></FrequencyChange></FrequencyChanges></Clock>\n",2.0.10.252,2.0.10.356,2.0.10.356,Professional,1.0.0.1
discount,,List3,,,,,,,,,,,,,,,,800,1 week,7,,,,,,,,,,,,,,,,,,,,,,,,,,,,,3,1,1,,,,,,,DelayDiscountingTitrated Backup1,01-13-2024,15:49:16,1/13/2024 8:49:16 PM,1019,1,11,DelayDiscountingTitrated Backup1-1019-1,-1765630129,1,60.018,"<?xml version=""1.0""?>\n<Clock xmlns:dt=""urn:schemas-microsoft-com:datatypes""><Description dt:dt=""string"">E-Prime Primary Realtime Clock</Description><StartTime><Timestamp dt:dt=""int"">0</Timestamp><DateUtc dt:dt=""string"">2024-01-13T20:49:16Z</DateUtc></StartTime><FrequencyChanges><FrequencyChange><Frequency dt:dt=""r8"">10000000</Frequency><Timestamp dt:dt=""r8"">3983962001093</Timestamp><Current dt:dt=""r8"">0</Current><DateUtc dt:dt=""string"">2024-01-13T20:49:16Z</DateUtc></FrequencyChange></FrequencyChanges></Clock>\n",2.0.10.252,2.0.10.356,2.0.10.356,Professional,1.0.0.1
onewkproc,,List1,,,,,,,,,,,,,,,,,,,,,,1,1,5,5,,,,,,,,,,,,,,,,,,,,,,,,,,,,,,,DelayDiscountingTitrated Backup1,01-13-2024,15:49:16,1/13/2024 8:49:16 PM,1019,1,11,DelayDiscountingTitrated Backup1-1019-1,-1765630129,1,60.018,"<?xml version=""1.0""?>\n<Clock xmlns:dt=""urn:schemas-microsoft-com:datatypes""><Description dt:dt=""string"">E-Prime Primary Realtime Clock</Description><StartTime><Timestamp dt:dt=""int"">0</Timestamp><DateUtc dt:dt=""string"">2024-01-13T20:49:16Z</DateUtc></StartTime><FrequencyChanges><FrequencyChange><Frequency dt:dt=""r8"">10000000</Frequency><Timestamp dt:dt=""r8"">3983962001093</Timestamp><Current dt:dt=""r8"">0</Current><DateUtc dt:dt=""string"">2024-01-13T20:49:16Z</DateUtc></FrequencyChange></FrequencyChanges></Clock>\n",2.0.10.252,2.0.10.356,2.0.10.356,Professional,1.0.0.1
Init4,,List12,,,3824,3,0,,600,3,200,,,,,,,,,,,,,,,,,,,,,,,,,,,,,,,,,,,,,,,,,1,1,1,,,,DelayDiscountingTitrated Backup1,01-13-2024,15:49:16,1/13/2024 8:49:16 PM,1019,1,11,DelayDiscountingTitrated Backup1-1019-1,-1765630129,1,60.018,"<?xml version=""1.0""?>\n<Clock xmlns:dt=""urn:schemas-microsoft-com:datatypes""><Description dt:dt=""string"">E-Prime Primary Realtime Clock</Description><StartTime><Timestamp dt:dt=""int"">0</Timestamp><DateUtc dt:dt=""string"">2024-01-13T20:49:16Z</DateUtc></StartTime><FrequencyChanges><FrequencyChange><Frequency dt:dt=""r8"">10000000</Frequency><Timestamp dt:dt=""r8"">3983962001093</Timestamp><Current dt:dt=""r8"">0</Current><DateUtc dt:dt=""string"">2024-01-13T20:49:16Z</DateUtc></FrequencyChange></FrequencyChanges></Clock>\n",2.0.10.252,2.0.10.356,2.0.10.356,Professional,1.0.0.1
Proc4,,List12,,,,,,,400,1,600,600,1271,1,0,,200,,,,,,,,,,,,,,,,,,,,,,,,,,,,,,,,,,,2,1,2,,,,DelayDiscountingTitrated Backup1,01-13-2024,15:49:16,1/13/2024 8:49:16 PM,1019,1,11,DelayDiscountingTitrated Backup1-1019-1,-1765630129,1,60.018,"<?xml version=""1.0""?>\n<Clock xmlns:dt=""urn:schemas-microsoft-com:datatypes""><Description dt:dt=""string"">E-Prime Primary Realtime Clock</Description><StartTime><Timestamp dt:dt=""int"">0</Timestamp><DateUtc dt:dt=""string"">2024-01-13T20:49:16Z</DateUtc></StartTime><FrequencyChanges><FrequencyChange><Frequency dt:dt=""r8"">10000000</Frequency><Timestamp dt:dt=""r8"">3983962001093</Timestamp><Current dt:dt=""r8"">0</Current><DateUtc dt:dt=""string"">2024-01-13T20:49:16Z</DateUtc></FrequencyChange></FrequencyChanges></Clock>\n",2.0.10.252,2.0.10.356,2.0.10.356,Professional,1.0.0.1
Proc4,,List12,,,,,,,500,3,400,400,1763,3,0,,100,,,,,,,,,,,,,,,,,,,,,,,,,,,,,,,,,,,3,1,3,,,,DelayDiscountingTitrated Backup1,01-13-2024,15:49:16,1/13/2024 8:49:16 PM,1019,1,11,DelayDiscountingTitrated Backup1-1019-1,-1765630129,1,60.018,"<?xml version=""1.0""?>\n<Clock xmlns:dt=""urn:schemas-microsoft-com:datatypes""><Description dt:dt=""string"">E-Prime Primary Realtime Clock</Description><StartTime><Timestamp dt:dt=""int"">0</Timestamp><DateUtc dt:dt=""string"">2024-01-13T20:49:16Z</DateUtc></StartTime><FrequencyChanges><FrequencyChange><Frequency dt:dt=""r8"">10000000</Frequency><Timestamp dt:dt=""r8"">3983962001093</Timestamp><Current dt:dt=""r8"">0</Current><DateUtc dt:dt=""string"">2024-01-13T20:49:16Z</DateUtc></FrequencyChange></FrequencyChanges></Clock>\n",2.0.10.252,2.0.10.356,2.0.10.356,Professional,1.0.0.1
Proc4,,List12,,,,,,,450,1,500,500,675,1,0,,50,,,,,,,,,,,,,,,,,,,,,,,,,,,,,,,,,,,4,1,4,,,,DelayDiscountingTitrated Backup1,01-13-2024,15:49:16,1/13/2024 8:49:16 PM,1019,1,11,DelayDiscountingTitrated Backup1-1019-1,-1765630129,1,60.018,"<?xml version=""1.0""?>\n<Clock xmlns:dt=""urn:schemas-microsoft-com:datatypes""><Description dt:dt=""string"">E-Prime Primary Realtime Clock</Description><StartTime><Timestamp dt:dt=""int"">0</Timestamp><DateUtc dt:dt=""string"">2024-01-13T20:49:16Z</DateUtc></StartTime><FrequencyChanges><FrequencyChange><Frequency dt:dt=""r8"">10000000</Frequency><Timestamp dt:dt=""r8"">3983962001093</Timestamp><Current dt:dt=""r8"">0</Current><DateUtc dt:dt=""string"">2024-01-13T20:49:16Z</DateUtc></FrequencyChange></FrequencyChanges></Clock>\n",2.0.10.252,2.0.10.356,2.0.10.356,Professional,1.0.0.1
Proc4,,List12,,,,,,,475,3,450,450,3999,3,0,,25,,,,,,,,,,,,,,,,,,,,,,,,,,,,,,,,,,,5,1,5,,,,DelayDiscountingTitrated Backup1,01-13-2024,15:49:16,1/13/2024 8:49:16 PM,1019,1,11,DelayDiscountingTitrated Backup1-1019-1,-1765630129,1,60.018,"<?xml version=""1.0""?>\n<Clock xmlns:dt=""urn:schemas-microsoft-com:datatypes""><Description dt:dt=""string"">E-Prime Primary Realtime Clock</Description><StartTime><Timestamp dt:dt=""int"">0</Timestamp><DateUtc dt:dt=""string"">2024-01-13T20:49:16Z</DateUtc></StartTime><FrequencyChanges><FrequencyChange><Frequency dt:dt=""r8"">10000000</Frequency><Timestamp dt:dt=""r8"">3983962001093</Timestamp><Current dt:dt=""r8"">0</Current><DateUtc dt:dt=""string"">2024-01-13T20:49:16Z</DateUtc></FrequencyChange></FrequencyChanges></Clock>\n",2.0.10.252,2.0.10.356,2.0.10.356,Professional,1.0.0.1
Proc4,,List12,,,,,,,463,1,475,475,3167,1,0,,12,,,,,,,,,,,,,,,,,,,,,,,,,,,,,,,,,,,6,1,6,,,,DelayDiscountingTitrated Backup1,01-13-2024,15:49:16,1/13/2024 8:49:16 PM,1019,1,11,DelayDiscountingTitrated Backup1-1019-1,-1765630129,1,60.018,"<?xml version=""1.0""?>\n<Clock xmlns:dt=""urn:schemas-microsoft-com:datatypes""><Description dt:dt=""string"">E-Prime Primary Realtime Clock</Description><StartTime><Timestamp dt:dt=""int"">0</Timestamp><DateUtc dt:dt=""string"">2024-01-13T20:49:16Z</DateUtc></StartTime><FrequencyChanges><FrequencyChange><Frequency dt:dt=""r8"">10000000</Frequency><Timestamp dt:dt=""r8"">3983962001093</Timestamp><Current dt:dt=""r8"">0</Current><DateUtc dt:dt=""string"">2024-01-13T20:49:16Z</DateUtc></FrequencyChange></FrequencyChanges></Clock>\n",2.0.10.252,2.0.10.356,2.0.10.356,Professional,1.0.0.1
Proc4,,List12,,,,,,,457,1,463,463,967,1,0,,6,,,,,,,,,,,,,,,,,,,,,,,,,,,,,,,,,,,7,1,7,,,,DelayDiscountingTitrated Backup1,01-13-2024,15:49:16,1/13/2024 8:49:16 PM,1019,1,11,DelayDiscountingTitrated Backup1-1019-1,-1765630129,1,60.018,"<?xml version=""1.0""?>\n<Clock xmlns:dt=""urn:schemas-microsoft-com:datatypes""><Description dt:dt=""string"">E-Prime Primary Realtime Clock</Description><StartTime><Timestamp dt:dt=""int"">0</Timestamp><DateUtc dt:dt=""string"">2024-01-13T20:49:16Z</DateUtc></StartTime><FrequencyChanges><FrequencyChange><Frequency dt:dt=""r8"">10000000</Frequency><Timestamp dt:dt=""r8"">3983962001093</Timestamp><Current dt:dt=""r8"">0</Current><DateUtc dt:dt=""string"">2024-01-13T20:49:16Z</DateUtc></FrequencyChange></FrequencyChanges></Clock>\n",2.0.10.252,2.0.10.356,2.0.10.356,Professional,1.0.0.1
Proc4,,List12,,,,,,,460,3,457,457,1087,3,0,,3,,,,,,,,,,,,,,,,,,,,,,,,,,,,,,,,,,,8,1,8,,,,DelayDiscountingTitrated Backup1,01-13-2024,15:49:16,1/13/2024 8:49:16 PM,1019,1,11,DelayDiscountingTitrated Backup1-1019-1,-1765630129,1,60.018,"<?xml version=""1.0""?>\n<Clock xmlns:dt=""urn:schemas-microsoft-com:datatypes""><Description dt:dt=""string"">E-Prime Primary Realtime Clock</Description><StartTime><Timestamp dt:dt=""int"">0</Timestamp><DateUtc dt:dt=""string"">2024-01-13T20:49:16Z</DateUtc></StartTime><FrequencyChanges><FrequencyChange><Frequency dt:dt=""r8"">10000000</Frequency><Timestamp dt:dt=""r8"">3983962001093</Timestamp><Current dt:dt=""r8"">0</Current><DateUtc dt:dt=""string"">2024-01-13T20:49:16Z</DateUtc></FrequencyChange></FrequencyChanges></Clock>\n",2.0.10.252,2.0.10.356,2.0.10.356,Professional,1.0.0.1
Proc4,,List12,,,,,,,462,3,460,460,2418,3,0,,2,,,,,,,,,,,,,,,,,,,,,,,,,,,,,,,,,,,9,1,9,,,,DelayDiscountingTitrated Backup1,01-13-2024,15:49:16,1/13/2024 8:49:16 PM,1019,1,11,DelayDiscountingTitrated Backup1-1019-1,-1765630129,1,60.018,"<?xml version=""1.0""?>\n<Clock xmlns:dt=""urn:schemas-microsoft-com:datatypes""><Description dt:dt=""string"">E-Prime Primary Realtime Clock</Description><StartTime><Timestamp dt:dt=""int"">0</Timestamp><DateUtc dt:dt=""string"">2024-01-13T20:49:16Z</DateUtc></StartTime><FrequencyChanges><FrequencyChange><Frequency dt:dt=""r8"">10000000</Frequency><Timestamp dt:dt=""r8"">3983962001093</Timestamp><Current dt:dt=""r8"">0</Current><DateUtc dt:dt=""string"">2024-01-13T20:49:16Z</DateUtc></FrequencyChange></FrequencyChanges></Clock>\n",2.0.10.252,2.0.10.356,2.0.10.356,Professional,1.0.0.1
Proc4,,List12,,,,,,,463,3,462,462,3305,3,0,,1,,,,,,,,,,,,,,,,,,,,,,,,,,,,,,,,,,,10,1,10,,,,DelayDiscountingTitrated Backup1,01-13-2024,15:49:16,1/13/2024 8:49:16 PM,1019,1,11,DelayDiscountingTitrated Backup1-1019-1,-1765630129,1,60.018,"<?xml version=""1.0""?>\n<Clock xmlns:dt=""urn:schemas-microsoft-com:datatypes""><Description dt:dt=""string"">E-Prime Primary Realtime Clock</Description><StartTime><Timestamp dt:dt=""int"">0</Timestamp><DateUtc dt:dt=""string"">2024-01-13T20:49:16Z</DateUtc></StartTime><FrequencyChanges><FrequencyChange><Frequency dt:dt=""r8"">10000000</Frequency><Timestamp dt:dt=""r8"">3983962001093</Timestamp><Current dt:dt=""r8"">0</Current><DateUtc dt:dt=""string"">2024-01-13T20:49:16Z</DateUtc></FrequencyChange></FrequencyChanges></Clock>\n",2.0.10.252,2.0.10.356,2.0.10.356,Professional,1.0.0.1
Proc4,,List12,,,,,,,463,3,462,463,1212,3,0,,,,,,,,,,,,,,,,,,,,,,,,,,,,,,,,,,,,,11,1,11,,,,DelayDiscountingTitrated Backup1,01-13-2024,15:49:16,1/13/2024 8:49:16 PM,1019,1,11,DelayDiscountingTitrated Backup1-1019-1,-1765630129,1,60.018,"<?xml version=""1.0""?>\n<Clock xmlns:dt=""urn:schemas-microsoft-com:datatypes""><Description dt:dt=""string"">E-Prime Primary Realtime Clock</Description><StartTime><Timestamp dt:dt=""int"">0</Timestamp><DateUtc dt:dt=""string"">2024-01-13T20:49:16Z</DateUtc></StartTime><FrequencyChanges><FrequencyChange><Frequency dt:dt=""r8"">10000000</Frequency><Timestamp dt:dt=""r8"">3983962001093</Timestamp><Current dt:dt=""r8"">0</Current><DateUtc dt:dt=""string"">2024-01-13T20:49:16Z</DateUtc></FrequencyChange></FrequencyChanges></Clock>\n",2.0.10.252,2.0.10.356,2.0.10.356,Professional,1.0.0.1
discount4,,List7,,,,,,,,,,,,,,,,200,5 years,1825,,,,,,,,,,,,,,,,,,,,,,,,,,,,,,,,,,,1,1,1,DelayDiscountingTitrated Backup1,01-13-2024,15:49:16,1/13/2024 8:49:16 PM,1019,1,11,DelayDiscountingTitrated Backup1-1019-1,-1765630129,1,60.018,"<?xml version=""1.0""?>\n<Clock xmlns:dt=""urn:schemas-microsoft-com:datatypes""><Description dt:dt=""string"">E-Prime Primary Realtime Clock</Description><StartTime><Timestamp dt:dt=""int"">0</Timestamp><DateUtc dt:dt=""string"">2024-01-13T20:49:16Z</DateUtc></StartTime><FrequencyChanges><FrequencyChange><Frequency dt:dt=""r8"">10000000</Frequency><Timestamp dt:dt=""r8"">3983962001093</Timestamp><Current dt:dt=""r8"">0</Current><DateUtc dt:dt=""string"">2024-01-13T20:49:16Z</DateUtc></FrequencyChange></FrequencyChanges></Clock>\n",2.0.10.252,2.0.10.356,2.0.10.356,Professional,1.0.0.1
fiveyearproc,,List1,,,,,,,,,,,,,,,,,,,,,,5,1,6,6,,,,,,,,,,,,,,,,,,,,,,,,,,,,,,,DelayDiscountingTitrated Backup1,01-13-2024,15:49:16,1/13/2024 8:49:16 PM,1019,1,11,DelayDiscountingTitrated Backup1-1019-1,-1765630129,1,60.018,"<?xml version=""1.0""?>\n<Clock xmlns:dt=""urn:schemas-microsoft-com:datatypes""><Description dt:dt=""string"">E-Prime Primary Realtime Clock</Description><StartTime><Timestamp dt:dt=""int"">0</Timestamp><DateUtc dt:dt=""string"">2024-01-13T20:49:16Z</DateUtc></StartTime><FrequencyChanges><FrequencyChange><Frequency dt:dt=""r8"">10000000</Frequency><Timestamp dt:dt=""r8"">3983962001093</Timestamp><Current dt:dt=""r8"">0</Current><DateUtc dt:dt=""string"">2024-01-13T20:49:16Z</DateUtc></FrequencyChange></FrequencyChanges></Clock>\n",2.0.10.252,2.0.10.356,2.0.10.356,Professional,1.0.0.1
,,,,,,,,,,,,,,,,,,,,,,,,,,,,,,,,,,,,,,,,,,,,,,,,,,,,,,,,,,DelayDiscountingTitrated Backup1,01-13-2024,15:49:16,1/13/2024 8:49:16 PM,1019,1,11,DelayDiscountingTitrated Backup1-1019-1,-1765630129,1,60.018,"<?xml version=""1.0""?>\n<Clock xmlns:dt=""urn:schemas-microsoft-com:datatypes""><Description dt:dt=""string"">E-Prime Primary Realtime Clock</Description><StartTime><Timestamp dt:dt=""int"">0</Timestamp><DateUtc dt:dt=""string"">2024-01-13T20:49:16Z</DateUtc></StartTime><FrequencyChanges><FrequencyChange><Frequency dt:dt=""r8"">10000000</Frequency><Timestamp dt:dt=""r8"">3983962001093</Timestamp><Current dt:dt=""r8"">0</Current><DateUtc dt:dt=""string"">2024-01-13T20:49:16Z</DateUtc></FrequencyChange></FrequencyChanges></Clock>\n",2.0.10.252,2.0.10.356,2.0.10.356,Professional,1.0.0.1
