Procedure,List12,Running,List12.Cycle,List12.Sample,Slide2.RT,Slide2.RESP,Slide4.RT,Slide4.RESP,immed3,respprev,prevalue,imstring,Slide1.RT,Slide1.RESP,Slide5.RT,Slide5.RESP,immed5,immed,delaypd,timedays,List7,List7.Cycle,List7.Sample,List1,List1.Cycle,List1.Sample,roundnumber,List11,List11.Cycle,List11.Sample,List6,List6.Cycle,List6.Sample,List9,List9.Cycle,List9.Sample,List4,List4.Cycle,List4.Sample,List13,List13.Cycle,List13.Sample,List8,List8.Cycle,List8.Sample,List2,List2.Cycle,List2.Sample,List3,List3.Cycle,List3.Sample,List10,List10.Cycle,List10.Sample,List5,List5.Cycle,List5.Sample,Experiment,SessionDate,SessionTime,SessionStartDateTimeUtc,Subject,Session,Age,DataFile.Basename,RandomSeed,Group,Display.RefreshRate,Clock.Information,StudioVersion,RuntimeVersion,RuntimeVersionExpected,RuntimeCapabilities,ExperimentVersion
Init4,1,List12,1,1,3966,1,0,,400,1,800,,,,,,,,,,,,,,,,,,,,,,,,,,,,,,,,,,,,,,,,,,,,,,,DelayDiscountingTitrated Backup1,01-30-2024,15:12:53,1/30/2024 8:12:53 PM,3084,1,19,DelayDiscountingTitrated Backup1-3084-1,1417306334,1,60.018,"<?xml version=""1.0""?>\n<Clock xmlns:dt=""urn:schemas-microsoft-com:datatypes""><Description dt:dt=""string"">E-Prime Primary Realtime Clock</Description><StartTime><Timestamp dt:dt=""int"">0</Timestamp><DateUtc dt:dt=""string"">2024-01-30T20:12:53Z</DateUtc></StartTime><FrequencyChanges><FrequencyChange><Frequency dt:dt=""r8"">10000000</Frequency><Timestamp dt:dt=""r8"">9755286003634</Timestamp><Current dt:dt=""r8"">0</Current><DateUtc dt:dt=""string"">2024-01-30T20:12:53Z</DateUtc></FrequencyChange></FrequencyChanges></Clock>\n",2.0.10.252,2.0.10.356,2.0.10.356,Professional,1.0.0.1
Proc4,2,List12,1,2,,,,,600,3,400,400,5455,3,0,,200,,,,,,,,,,,,,,,,,,,,,,,,,,,,,,,,,,,,,,,,,DelayDiscountingTitrated Backup1,01-30-2024,15:12:53,1/30/2024 8:12:53 PM,3084,1,19,DelayDiscountingTitrated Backup1-3084-1,1417306334,1,60.018,"<?xml version=""1.0""?>\n<Clock xmlns:dt=""urn:schemas-microsoft-com:datatypes""><Description dt:dt=""string"">E-Prime Primary Realtime Clock</Description><StartTime><Timestamp dt:dt=""int"">0</Timestamp><DateUtc dt:dt=""string"">2024-01-30T20:12:53Z</DateUtc></StartTime><FrequencyChanges><FrequencyChange><Frequency dt:dt=""r8"">10000000</Frequency><Timestamp dt:dt=""r8"">9755286003634</Timestamp><Current dt:dt=""r8"">0</Current><DateUtc dt:dt=""string"">2024-01-30T20:12:53Z</DateUtc></FrequencyChange></FrequencyChanges></Clock>\n",2.0.10.252,2.0.10.356,2.0.10.356,Professional,1.0.0.1
Proc4,3,List12,1,3,,,,,500,1,600,600,6781,1,0,,100,,,,,,,,,,,,,,,,,,,,,,,,,,,,,,,,,,,,,,,,,DelayDiscountingTitrated Backup1,01-30-2024,15:12:53,1/30/2024 8:12:53 PM,3084,1,19,DelayDiscountingTitrated Backup1-3084-1,1417306334,1,60.018,"<?xml version=""1.0""?>\n<Clock xmlns:dt=""urn:schemas-microsoft-com:datatypes""><Description dt:dt=""string"">E-Prime Primary Realtime Clock</Description><StartTime><Timestamp dt:dt=""int"">0</Timestamp><DateUtc dt:dt=""string"">2024-01-30T20:12:53Z</DateUtc></StartTime><FrequencyChanges><FrequencyChange><Frequency dt:dt=""r8"">10000000</Frequency><Timestamp dt:dt=""r8"">9755286003634</Timestamp><Current dt:dt=""r8"">0</Current><DateUtc dt:dt=""string"">2024-01-30T20:12:53Z</DateUtc></FrequencyChange></FrequencyChanges></Clock>\n",2.0.10.252,2.0.10.356,2.0.10.356,Professional,1.0.0.1
Proc4,4,List12,1,4,,,,,550,3,500,500,3950,3,0,,50,,,,,,,,,,,,,,,,,,,,,,,,,,,,,,,,,,,,,,,,,DelayDiscountingTitrated Backup1,01-30-2024,15:12:53,1/30/2024 8:12:53 PM,3084,1,19,DelayDiscountingTitrated Backup1-3084-1,1417306334,1,60.018,"<?xml version=""1.0""?>\n<Clock xmlns:dt=""urn:schemas-microsoft-com:datatypes""><Description dt:dt=""string"">E-Prime Primary Realtime Clock</Description><StartTime><Timestamp dt:dt=""int"">0</Timestamp><DateUtc dt:dt=""string"">2024-01-30T20:12:53Z</DateUtc></StartTime><FrequencyChanges><FrequencyChange><Frequency dt:dt=""r8"">10000000</Frequency><Timestamp dt:dt=""r8"">9755286003634</Timestamp><Current dt:dt=""r8"">0</Current><DateUtc dt:dt=""string"">2024-01-30T20:12:53Z</DateUtc></FrequencyChange></FrequencyChanges></Clock>\n",2.0.10.252,2.0.10.356,2.0.10.356,Professional,1.0.0.1
Proc4,5,List12,1,5,,,,,575,3,550,550,6048,3,0,,25,,,,,,,,,,,,,,,,,,,,,,,,,,,,,,,,,,,,,,,,,DelayDiscountingTitrated Backup1,01-30-2024,15:12:53,1/30/2024 8:12:53 PM,3084,1,19,DelayDiscountingTitrated Backup1-3084-1,1417306334,1,60.018,"<?xml version=""1.0""?>\n<Clock xmlns:dt=""urn:schemas-microsoft-com:datatypes""><Description dt:dt=""string"">E-Prime Primary Realtime Clock</Description><StartTime><Timestamp dt:dt=""int"">0</Timestamp><DateUtc dt:dt=""string"">2024-01-30T20:12:53Z</DateUtc></StartTime><FrequencyChanges><FrequencyChange><Frequency dt:dt=""r8"">10000000</Frequency><Timestamp dt:dt=""r8"">9755286003634</Timestamp><Current dt:dt=""r8"">0</Current><DateUtc dt:dt=""string"">2024-01-30T20:12:53Z</DateUtc></FrequencyChange></FrequencyChanges></Clock>\n",2.0.10.252,2.0.10.356,2.0.10.356,Professional,1.0.0.1
Proc4,6,List12,1,6,,,,,563,1,575,575,3806,1,0,,12,,,,,,,,,,,,,,,,,,,,,,,,,,,,,,,,,,,,,,,,,DelayDiscountingTitrated Backup1,01-30-2024,15:12:53,1/30/2024 8:12:53 PM,3084,1,19,DelayDiscountingTitrated Backup1-3084-1,1417306334,1,60.018,"<?xml version=""1.0""?>\n<Clock xmlns:dt=""urn:schemas-microsoft-com:datatypes""><Description dt:dt=""string"">E-Prime Primary Realtime Clock</Description><StartTime><Timestamp dt:dt=""int"">0</Timestamp><DateUtc dt:dt=""string"">2024-01-30T20:12:53Z</DateUtc></StartTime><FrequencyChanges><FrequencyChange><Frequency dt:dt=""r8"">10000000</Frequency><Timestamp dt:dt=""r8"">9755286003634</Timestamp><Current dt:dt=""r8"">0</Current><DateUtc dt:dt=""string"">2024-01-30T20:12:53Z</DateUtc></FrequencyChange></FrequencyChanges></Clock>\n",2.0.10.252,2.0.10.356,2.0.10.356,Professional,1.0.0.1
Proc4,7,List12,1,7,,,,,557,1,563,563,7789,1,0,,6,,,,,,,,,,,,,,,,,,,,,,,,,,,,,,,,,,,,,,,,,DelayDiscountingTitrated Backup1,01-30-2024,15:12:53,1/30/2024 8:12:53 PM,3084,1,19,DelayDiscountingTitrated Backup1-3084-1,1417306334,1,60.018,"<?xml version=""1.0""?>\n<Clock xmlns:dt=""urn:schemas-microsoft-com:datatypes""><Description dt:dt=""string"">E-Prime Primary Realtime Clock</Description><StartTime><Timestamp dt:dt=""int"">0</Timestamp><DateUtc dt:dt=""string"">2024-01-30T20:12:53Z</DateUtc></StartTime><FrequencyChanges><FrequencyChange><Frequency dt:dt=""r8"">10000000</Frequency><Timestamp dt:dt=""r8"">9755286003634</Timestamp><Current dt:dt=""r8"">0</Current><DateUtc dt:dt=""string"">2024-01-30T20:12:53Z</DateUtc></FrequencyChange></FrequencyChanges></Clock>\n",2.0.10.252,2.0.10.356,2.0.10.356,Professional,1.0.0.1
Proc4,8,List12,1,8,,,,,554,1,557,557,1535,1,0,,3,,,,,,,,,,,,,,,,,,,,,,,,,,,,,,,,,,,,,,,,,DelayDiscountingTitrated Backup1,01-30-2024,15:12:53,1/30/2024 8:12:53 PM,3084,1,19,DelayDiscountingTitrated Backup1-3084-1,1417306334,1,60.018,"<?xml version=""1.0""?>\n<Clock xmlns:dt=""urn:schemas-microsoft-com:datatypes""><Description dt:dt=""string"">E-Prime Primary Realtime Clock</Description><StartTime><Timestamp dt:dt=""int"">0</Timestamp><DateUtc dt:dt=""string"">2024-01-30T20:12:53Z</DateUtc></StartTime><FrequencyChanges><FrequencyChange><Frequency dt:dt=""r8"">10000000</Frequency><Timestamp dt:dt=""r8"">9755286003634</Timestamp><Current dt:dt=""r8"">0</Current><DateUtc dt:dt=""string"">2024-01-30T20:12:53Z</DateUtc></FrequencyChange></FrequencyChanges></Clock>\n",2.0.10.252,2.0.10.356,2.0.10.356,Professional,1.0.0.1
Proc4,9,List12,1,9,,,,,556,3,554,554,1504,3,0,,2,,,,,,,,,,,,,,,,,,,,,,,,,,,,,,,,,,,,,,,,,DelayDiscountingTitrated Backup1,01-30-2024,15:12:53,1/30/2024 8:12:53 PM,3084,1,19,DelayDiscountingTitrated Backup1-3084-1,1417306334,1,60.018,"<?xml version=""1.0""?>\n<Clock xmlns:dt=""urn:schemas-microsoft-com:datatypes""><Description dt:dt=""string"">E-Prime Primary Realtime Clock</Description><StartTime><Timestamp dt:dt=""int"">0</Timestamp><DateUtc dt:dt=""string"">2024-01-30T20:12:53Z</DateUtc></StartTime><FrequencyChanges><FrequencyChange><Frequency dt:dt=""r8"">10000000</Frequency><Timestamp dt:dt=""r8"">9755286003634</Timestamp><Current dt:dt=""r8"">0</Current><DateUtc dt:dt=""string"">2024-01-30T20:12:53Z</DateUtc></FrequencyChange></FrequencyChanges></Clock>\n",2.0.10.252,2.0.10.356,2.0.10.356,Professional,1.0.0.1
Proc4,10,List12,1,10,,,,,555,1,556,556,1539,1,0,,1,,,,,,,,,,,,,,,,,,,,,,,,,,,,,,,,,,,,,,,,,DelayDiscountingTitrated Backup1,01-30-2024,15:12:53,1/30/2024 8:12:53 PM,3084,1,19,DelayDiscountingTitrated Backup1-3084-1,1417306334,1,60.018,"<?xml version=""1.0""?>\n<Clock xmlns:dt=""urn:schemas-microsoft-com:datatypes""><Description dt:dt=""string"">E-Prime Primary Realtime Clock</Description><StartTime><Timestamp dt:dt=""int"">0</Timestamp><DateUtc dt:dt=""string"">2024-01-30T20:12:53Z</DateUtc></StartTime><FrequencyChanges><FrequencyChange><Frequency dt:dt=""r8"">10000000</Frequency><Timestamp dt:dt=""r8"">9755286003634</Timestamp><Current dt:dt=""r8"">0</Current><DateUtc dt:dt=""string"">2024-01-30T20:12:53Z</DateUtc></FrequencyChange></FrequencyChanges></Clock>\n",2.0.10.252,2.0.10.356,2.0.10.356,Professional,1.0.0.1
Proc4,11,List12,1,11,,,,,555,3,556,555,2356,3,0,,,,,,,,,,,,,,,,,,,,,,,,,,,,,,,,,,,,,,,,,,,DelayDiscountingTitrated Backup1,01-30-2024,15:12:53,1/30/2024 8:12:53 PM,3084,1,19,DelayDiscountingTitrated Backup1-3084-1,1417306334,1,60.018,"<?xml version=""1.0""?>\n<Clock xmlns:dt=""urn:schemas-microsoft-com:datatypes""><Description dt:dt=""string"">E-Prime Primary Realtime Clock</Description><StartTime><Timestamp dt:dt=""int"">0</Timestamp><DateUtc dt:dt=""string"">2024-01-30T20:12:53Z</DateUtc></StartTime><FrequencyChanges><FrequencyChange><Frequency dt:dt=""r8"">10000000</Frequency><Timestamp dt:dt=""r8"">9755286003634</Timestamp><Current dt:dt=""r8"">0</Current><DateUtc dt:dt=""string"">2024-01-30T20:12:53Z</DateUtc></FrequencyChange></FrequencyChanges></Clock>\n",2.0.10.252,2.0.10.356,2.0.10.356,Professional,1.0.0.1
discount4,,List7,,,,,,,,,,,,,,,,800,5 years,1825,3,1,1,,,,,,,,,,,,,,,,,,,,,,,,,,,,,,,,,,,DelayDiscountingTitrated Backup1,01-30-2024,15:12:53,1/30/2024 8:12:53 PM,3084,1,19,DelayDiscountingTitrated Backup1-3084-1,1417306334,1,60.018,"<?xml version=""1.0""?>\n<Clock xmlns:dt=""urn:schemas-microsoft-com:datatypes""><Description dt:dt=""string"">E-Prime Primary Realtime Clock</Description><StartTime><Timestamp dt:dt=""int"">0</Timestamp><DateUtc dt:dt=""string"">2024-01-30T20:12:53Z</DateUtc></StartTime><FrequencyChanges><FrequencyChange><Frequency dt:dt=""r8"">10000000</Frequency><Timestamp dt:dt=""r8"">9755286003634</Timestamp><Current dt:dt=""r8"">0</Current><DateUtc dt:dt=""string"">2024-01-30T20:12:53Z</DateUtc></FrequencyChange></FrequencyChanges></Clock>\n",2.0.10.252,2.0.10.356,2.0.10.356,Professional,1.0.0.1
fiveyearproc,,List1,,,,,,,,,,,,,,,,,,,,,,5,1,1,1,,,,,,,,,,,,,,,,,,,,,,,,,,,,,,,DelayDiscountingTitrated Backup1,01-30-2024,15:12:53,1/30/2024 8:12:53 PM,3084,1,19,DelayDiscountingTitrated Backup1-3084-1,1417306334,1,60.018,"<?xml version=""1.0""?>\n<Clock xmlns:dt=""urn:schemas-microsoft-com:datatypes""><Description dt:dt=""string"">E-Prime Primary Realtime Clock</Description><StartTime><Timestamp dt:dt=""int"">0</Timestamp><DateUtc dt:dt=""string"">2024-01-30T20:12:53Z</DateUtc></StartTime><FrequencyChanges><FrequencyChange><Frequency dt:dt=""r8"">10000000</Frequency><Timestamp dt:dt=""r8"">9755286003634</Timestamp><Current dt:dt=""r8"">0</Current><DateUtc dt:dt=""string"">2024-01-30T20:12:53Z</DateUtc></FrequencyChange></FrequencyChanges></Clock>\n",2.0.10.252,2.0.10.356,2.0.10.356,Professional,1.0.0.1
Init3,,List11,,,4819,3,0,,900,3,800,,,,,,,,,,,,,,,,,1,1,1,,,,,,,,,,,,,,,,,,,,,,,,,,,,DelayDiscountingTitrated Backup1,01-30-2024,15:12:53,1/30/2024 8:12:53 PM,3084,1,19,DelayDiscountingTitrated Backup1-3084-1,1417306334,1,60.018,"<?xml version=""1.0""?>\n<Clock xmlns:dt=""urn:schemas-microsoft-com:datatypes""><Description dt:dt=""string"">E-Prime Primary Realtime Clock</Description><StartTime><Timestamp dt:dt=""int"">0</Timestamp><DateUtc dt:dt=""string"">2024-01-30T20:12:53Z</DateUtc></StartTime><FrequencyChanges><FrequencyChange><Frequency dt:dt=""r8"">10000000</Frequency><Timestamp dt:dt=""r8"">9755286003634</Timestamp><Current dt:dt=""r8"">0</Current><DateUtc dt:dt=""string"">2024-01-30T20:12:53Z</DateUtc></FrequencyChange></FrequencyChanges></Clock>\n",2.0.10.252,2.0.10.356,2.0.10.356,Professional,1.0.0.1
Proc3,,List11,,,,,,,950,3,900,900,2178,3,0,,50,,,,,,,,,,,2,1,2,,,,,,,,,,,,,,,,,,,,,,,,,,,,DelayDiscountingTitrated Backup1,01-30-2024,15:12:53,1/30/2024 8:12:53 PM,3084,1,19,DelayDiscountingTitrated Backup1-3084-1,1417306334,1,60.018,"<?xml version=""1.0""?>\n<Clock xmlns:dt=""urn:schemas-microsoft-com:datatypes""><Description dt:dt=""string"">E-Prime Primary Realtime Clock</Description><StartTime><Timestamp dt:dt=""int"">0</Timestamp><DateUtc dt:dt=""string"">2024-01-30T20:12:53Z</DateUtc></StartTime><FrequencyChanges><FrequencyChange><Frequency dt:dt=""r8"">10000000</Frequency><Timestamp dt:dt=""r8"">9755286003634</Timestamp><Current dt:dt=""r8"">0</Current><DateUtc dt:dt=""string"">2024-01-30T20:12:53Z</DateUtc></FrequencyChange></FrequencyChanges></Clock>\n",2.0.10.252,2.0.10.356,2.0.10.356,Professional,1.0.0.1
Proc3,,List11,,,,,,,925,1,950,950,2353,1,0,,25,,,,,,,,,,,3,1,3,,,,,,,,,,,,,,,,,,,,,,,,,,,,DelayDiscountingTitrated Backup1,01-30-2024,15:12:53,1/30/2024 8:12:53 PM,3084,1,19,DelayDiscountingTitrated Backup1-3084-1,1417306334,1,60.018,"<?xml version=""1.0""?>\n<Clock xmlns:dt=""urn:schemas-microsoft-com:datatypes""><Description dt:dt=""string"">E-Prime Primary Realtime Clock</Description><StartTime><Timestamp dt:dt=""int"">0</Timestamp><DateUtc dt:dt=""string"">2024-01-30T20:12:53Z</DateUtc></StartTime><FrequencyChanges><FrequencyChange><Frequency dt:dt=""r8"">10000000</Frequency><Timestamp dt:dt=""r8"">9755286003634</Timestamp><Current dt:dt=""r8"">0</Current><DateUtc dt:dt=""string"">2024-01-30T20:12:53Z</DateUtc></FrequencyChange></FrequencyChanges></Clock>\n",2.0.10.252,2.0.10.356,2.0.10.356,Professional,1.0.0.1
Proc3,,List11,,,,,,,913,1,925,925,1610,1,0,,12,,,,,,,,,,,4,1,4,,,,,,,,,,,,,,,,,,,,,,,,,,,,DelayDiscountingTitrated Backup1,01-30-2024,15:12:53,1/30/2024 8:12:53 PM,3084,1,19,DelayDiscountingTitrated Backup1-3084-1,1417306334,1,60.018,"<?xml version=""1.0""?>\n<Clock xmlns:dt=""urn:schemas-microsoft-com:datatypes""><Description dt:dt=""string"">E-Prime Primary Realtime Clock</Description><StartTime><Timestamp dt:dt=""int"">0</Timestamp><DateUtc dt:dt=""string"">2024-01-30T20:12:53Z</DateUtc></StartTime><FrequencyChanges><FrequencyChange><Frequency dt:dt=""r8"">10000000</Frequency><Timestamp dt:dt=""r8"">9755286003634</Timestamp><Current dt:dt=""r8"">0</Current><DateUtc dt:dt=""string"">2024-01-30T20:12:53Z</DateUtc></FrequencyChange></FrequencyChanges></Clock>\n",2.0.10.252,2.0.10.356,2.0.10.356,Professional,1.0.0.1
Proc3,,List11,,,,,,,907,1,913,913,1240,1,0,,6,,,,,,,,,,,5,1,5,,,,,,,,,,,,,,,,,,,,,,,,,,,,DelayDiscountingTitrated Backup1,01-30-2024,15:12:53,1/30/2024 8:12:53 PM,3084,1,19,DelayDiscountingTitrated Backup1-3084-1,1417306334,1,60.018,"<?xml version=""1.0""?>\n<Clock xmlns:dt=""urn:schemas-microsoft-com:datatypes""><Description dt:dt=""string"">E-Prime Primary Realtime Clock</Description><StartTime><Timestamp dt:dt=""int"">0</Timestamp><DateUtc dt:dt=""string"">2024-01-30T20:12:53Z</DateUtc></StartTime><FrequencyChanges><FrequencyChange><Frequency dt:dt=""r8"">10000000</Frequency><Timestamp dt:dt=""r8"">9755286003634</Timestamp><Current dt:dt=""r8"">0</Current><DateUtc dt:dt=""string"">2024-01-30T20:12:53Z</DateUtc></FrequencyChange></FrequencyChanges></Clock>\n",2.0.10.252,2.0.10.356,2.0.10.356,Professional,1.0.0.1
Proc3,,List11,,,,,,,910,3,907,907,1070,3,0,,3,,,,,,,,,,,6,1,6,,,,,,,,,,,,,,,,,,,,,,,,,,,,DelayDiscountingTitrated Backup1,01-30-2024,15:12:53,1/30/2024 8:12:53 PM,3084,1,19,DelayDiscountingTitrated Backup1-3084-1,1417306334,1,60.018,"<?xml version=""1.0""?>\n<Clock xmlns:dt=""urn:schemas-microsoft-com:datatypes""><Description dt:dt=""string"">E-Prime Primary Realtime Clock</Description><StartTime><Timestamp dt:dt=""int"">0</Timestamp><DateUtc dt:dt=""string"">2024-01-30T20:12:53Z</DateUtc></StartTime><FrequencyChanges><FrequencyChange><Frequency dt:dt=""r8"">10000000</Frequency><Timestamp dt:dt=""r8"">9755286003634</Timestamp><Current dt:dt=""r8"">0</Current><DateUtc dt:dt=""string"">2024-01-30T20:12:53Z</DateUtc></FrequencyChange></FrequencyChanges></Clock>\n",2.0.10.252,2.0.10.356,2.0.10.356,Professional,1.0.0.1
Proc3,,List11,,,,,,,912,3,910,910,1562,3,0,,2,,,,,,,,,,,7,1,7,,,,,,,,,,,,,,,,,,,,,,,,,,,,DelayDiscountingTitrated Backup1,01-30-2024,15:12:53,1/30/2024 8:12:53 PM,3084,1,19,DelayDiscountingTitrated Backup1-3084-1,1417306334,1,60.018,"<?xml version=""1.0""?>\n<Clock xmlns:dt=""urn:schemas-microsoft-com:datatypes""><Description dt:dt=""string"">E-Prime Primary Realtime Clock</Description><StartTime><Timestamp dt:dt=""int"">0</Timestamp><DateUtc dt:dt=""string"">2024-01-30T20:12:53Z</DateUtc></StartTime><FrequencyChanges><FrequencyChange><Frequency dt:dt=""r8"">10000000</Frequency><Timestamp dt:dt=""r8"">9755286003634</Timestamp><Current dt:dt=""r8"">0</Current><DateUtc dt:dt=""string"">2024-01-30T20:12:53Z</DateUtc></FrequencyChange></FrequencyChanges></Clock>\n",2.0.10.252,2.0.10.356,2.0.10.356,Professional,1.0.0.1
Proc3,,List11,,,,,,,913,3,912,912,1466,3,0,,1,,,,,,,,,,,8,1,8,,,,,,,,,,,,,,,,,,,,,,,,,,,,DelayDiscountingTitrated Backup1,01-30-2024,15:12:53,1/30/2024 8:12:53 PM,3084,1,19,DelayDiscountingTitrated Backup1-3084-1,1417306334,1,60.018,"<?xml version=""1.0""?>\n<Clock xmlns:dt=""urn:schemas-microsoft-com:datatypes""><Description dt:dt=""string"">E-Prime Primary Realtime Clock</Description><StartTime><Timestamp dt:dt=""int"">0</Timestamp><DateUtc dt:dt=""string"">2024-01-30T20:12:53Z</DateUtc></StartTime><FrequencyChanges><FrequencyChange><Frequency dt:dt=""r8"">10000000</Frequency><Timestamp dt:dt=""r8"">9755286003634</Timestamp><Current dt:dt=""r8"">0</Current><DateUtc dt:dt=""string"">2024-01-30T20:12:53Z</DateUtc></FrequencyChange></FrequencyChanges></Clock>\n",2.0.10.252,2.0.10.356,2.0.10.356,Professional,1.0.0.1
Proc3,,List11,,,,,,,913,3,912,913,3358,3,0,,,,,,,,,,,,,9,1,9,,,,,,,,,,,,,,,,,,,,,,,,,,,,DelayDiscountingTitrated Backup1,01-30-2024,15:12:53,1/30/2024 8:12:53 PM,3084,1,19,DelayDiscountingTitrated Backup1-3084-1,1417306334,1,60.018,"<?xml version=""1.0""?>\n<Clock xmlns:dt=""urn:schemas-microsoft-com:datatypes""><Description dt:dt=""string"">E-Prime Primary Realtime Clock</Description><StartTime><Timestamp dt:dt=""int"">0</Timestamp><DateUtc dt:dt=""string"">2024-01-30T20:12:53Z</DateUtc></StartTime><FrequencyChanges><FrequencyChange><Frequency dt:dt=""r8"">10000000</Frequency><Timestamp dt:dt=""r8"">9755286003634</Timestamp><Current dt:dt=""r8"">0</Current><DateUtc dt:dt=""string"">2024-01-30T20:12:53Z</DateUtc></FrequencyChange></FrequencyChanges></Clock>\n",2.0.10.252,2.0.10.356,2.0.10.356,Professional,1.0.0.1
discount3,,List6,,,,,,,,,,,,,,,,800,1 year,365,,,,,,,,,,,3,1,1,,,,,,,,,,,,,,,,,,,,,,,,,DelayDiscountingTitrated Backup1,01-30-2024,15:12:53,1/30/2024 8:12:53 PM,3084,1,19,DelayDiscountingTitrated Backup1-3084-1,1417306334,1,60.018,"<?xml version=""1.0""?>\n<Clock xmlns:dt=""urn:schemas-microsoft-com:datatypes""><Description dt:dt=""string"">E-Prime Primary Realtime Clock</Description><StartTime><Timestamp dt:dt=""int"">0</Timestamp><DateUtc dt:dt=""string"">2024-01-30T20:12:53Z</DateUtc></StartTime><FrequencyChanges><FrequencyChange><Frequency dt:dt=""r8"">10000000</Frequency><Timestamp dt:dt=""r8"">9755286003634</Timestamp><Current dt:dt=""r8"">0</Current><DateUtc dt:dt=""string"">2024-01-30T20:12:53Z</DateUtc></FrequencyChange></FrequencyChanges></Clock>\n",2.0.10.252,2.0.10.356,2.0.10.356,Professional,1.0.0.1
oneyearproc,,List1,,,,,,,,,,,,,,,,,,,,,,4,1,2,2,,,,,,,,,,,,,,,,,,,,,,,,,,,,,,,DelayDiscountingTitrated Backup1,01-30-2024,15:12:53,1/30/2024 8:12:53 PM,3084,1,19,DelayDiscountingTitrated Backup1-3084-1,1417306334,1,60.018,"<?xml version=""1.0""?>\n<Clock xmlns:dt=""urn:schemas-microsoft-com:datatypes""><Description dt:dt=""string"">E-Prime Primary Realtime Clock</Description><StartTime><Timestamp dt:dt=""int"">0</Timestamp><DateUtc dt:dt=""string"">2024-01-30T20:12:53Z</DateUtc></StartTime><FrequencyChanges><FrequencyChange><Frequency dt:dt=""r8"">10000000</Frequency><Timestamp dt:dt=""r8"">9755286003634</Timestamp><Current dt:dt=""r8"">0</Current><DateUtc dt:dt=""string"">2024-01-30T20:12:53Z</DateUtc></FrequencyChange></FrequencyChanges></Clock>\n",2.0.10.252,2.0.10.356,2.0.10.356,Professional,1.0.0.1
Init1,,List9,,,3175,3,0,,750,3,500,,,,,,,,,,,,,,,,,,,,,,,1,1,1,,,,,,,,,,,,,,,,,,,,,,DelayDiscountingTitrated Backup1,01-30-2024,15:12:53,1/30/2024 8:12:53 PM,3084,1,19,DelayDiscountingTitrated Backup1-3084-1,1417306334,1,60.018,"<?xml version=""1.0""?>\n<Clock xmlns:dt=""urn:schemas-microsoft-com:datatypes""><Description dt:dt=""string"">E-Prime Primary Realtime Clock</Description><StartTime><Timestamp dt:dt=""int"">0</Timestamp><DateUtc dt:dt=""string"">2024-01-30T20:12:53Z</DateUtc></StartTime><FrequencyChanges><FrequencyChange><Frequency dt:dt=""r8"">10000000</Frequency><Timestamp dt:dt=""r8"">9755286003634</Timestamp><Current dt:dt=""r8"">0</Current><DateUtc dt:dt=""string"">2024-01-30T20:12:53Z</DateUtc></FrequencyChange></FrequencyChanges></Clock>\n",2.0.10.252,2.0.10.356,2.0.10.356,Professional,1.0.0.1
Proc1,,List9,,,,,,,875,3,750,750,1951,3,0,,125,,,,,,,,,,,,,,,,,2,1,2,,,,,,,,,,,,,,,,,,,,,,DelayDiscountingTitrated Backup1,01-30-2024,15:12:53,1/30/2024 8:12:53 PM,3084,1,19,DelayDiscountingTitrated Backup1-3084-1,1417306334,1,60.018,"<?xml version=""1.0""?>\n<Clock xmlns:dt=""urn:schemas-microsoft-com:datatypes""><Description dt:dt=""string"">E-Prime Primary Realtime Clock</Description><StartTime><Timestamp dt:dt=""int"">0</Timestamp><DateUtc dt:dt=""string"">2024-01-30T20:12:53Z</DateUtc></StartTime><FrequencyChanges><FrequencyChange><Frequency dt:dt=""r8"">10000000</Frequency><Timestamp dt:dt=""r8"">9755286003634</Timestamp><Current dt:dt=""r8"">0</Current><DateUtc dt:dt=""string"">2024-01-30T20:12:53Z</DateUtc></FrequencyChange></FrequencyChanges></Clock>\n",2.0.10.252,2.0.10.356,2.0.10.356,Professional,1.0.0.1
Proc1,,List9,,,,,,,813,1,875,875,2856,1,0,,62,,,,,,,,,,,,,,,,,3,1,3,,,,,,,,,,,,,,,,,,,,,,DelayDiscountingTitrated Backup1,01-30-2024,15:12:53,1/30/2024 8:12:53 PM,3084,1,19,DelayDiscountingTitrated Backup1-3084-1,1417306334,1,60.018,"<?xml version=""1.0""?>\n<Clock xmlns:dt=""urn:schemas-microsoft-com:datatypes""><Description dt:dt=""string"">E-Prime Primary Realtime Clock</Description><StartTime><Timestamp dt:dt=""int"">0</Timestamp><DateUtc dt:dt=""string"">2024-01-30T20:12:53Z</DateUtc></StartTime><FrequencyChanges><FrequencyChange><Frequency dt:dt=""r8"">10000000</Frequency><Timestamp dt:dt=""r8"">9755286003634</Timestamp><Current dt:dt=""r8"">0</Current><DateUtc dt:dt=""string"">2024-01-30T20:12:53Z</DateUtc></FrequencyChange></FrequencyChanges></Clock>\n",2.0.10.252,2.0.10.356,2.0.10.356,Professional,1.0.0.1
Proc1,,List9,,,,,,,844,3,813,813,1213,3,0,,31,,,,,,,,,,,,,,,,,4,1,4,,,,,,,,,,,,,,,,,,,,,,DelayDiscountingTitrated Backup1,01-30-2024,15:12:53,1/30/2024 8:12:53 PM,3084,1,19,DelayDiscountingTitrated Backup1-3084-1,1417306334,1,60.018,"<?xml version=""1.0""?>\n<Clock xmlns:dt=""urn:schemas-microsoft-com:datatypes""><Description dt:dt=""string"">E-Prime Primary Realtime Clock</Description><StartTime><Timestamp dt:dt=""int"">0</Timestamp><DateUtc dt:dt=""string"">2024-01-30T20:12:53Z</DateUtc></StartTime><FrequencyChanges><FrequencyChange><Frequency dt:dt=""r8"">10000000</Frequency><Timestamp dt:dt=""r8"">9755286003634</Timestamp><Current dt:dt=""r8"">0</Current><DateUtc dt:dt=""string"">2024-01-30T20:12:53Z</DateUtc></FrequencyChange></FrequencyChanges></Clock>\n",2.0.10.252,2.0.10.356,2.0.10.356,Professional,1.0.0.1
Proc1,,List9,,,,,,,860,3,844,844,2275,3,0,,16,,,,,,,,,,,,,,,,,5,1,5,,,,,,,,,,,,,,,,,,,,,,DelayDiscountingTitrated Backup1,01-30-2024,15:12:53,1/30/2024 8:12:53 PM,3084,1,19,DelayDiscountingTitrated Backup1-3084-1,1417306334,1,60.018,"<?xml version=""1.0""?>\n<Clock xmlns:dt=""urn:schemas-microsoft-com:datatypes""><Description dt:dt=""string"">E-Prime Primary Realtime Clock</Description><StartTime><Timestamp dt:dt=""int"">0</Timestamp><DateUtc dt:dt=""string"">2024-01-30T20:12:53Z</DateUtc></StartTime><FrequencyChanges><FrequencyChange><Frequency dt:dt=""r8"">10000000</Frequency><Timestamp dt:dt=""r8"">9755286003634</Timestamp><Current dt:dt=""r8"">0</Current><DateUtc dt:dt=""string"">2024-01-30T20:12:53Z</DateUtc></FrequencyChange></FrequencyChanges></Clock>\n",2.0.10.252,2.0.10.356,2.0.10.356,Professional,1.0.0.1
Proc1,,List9,,,,,,,868,3,860,860,1312,3,0,,8,,,,,,,,,,,,,,,,,6,1,6,,,,,,,,,,,,,,,,,,,,,,DelayDiscountingTitrated Backup1,01-30-2024,15:12:53,1/30/2024 8:12:53 PM,3084,1,19,DelayDiscountingTitrated Backup1-3084-1,1417306334,1,60.018,"<?xml version=""1.0""?>\n<Clock xmlns:dt=""urn:schemas-microsoft-com:datatypes""><Description dt:dt=""string"">E-Prime Primary Realtime Clock</Description><StartTime><Timestamp dt:dt=""int"">0</Timestamp><DateUtc dt:dt=""string"">2024-01-30T20:12:53Z</DateUtc></StartTime><FrequencyChanges><FrequencyChange><Frequency dt:dt=""r8"">10000000</Frequency><Timestamp dt:dt=""r8"">9755286003634</Timestamp><Current dt:dt=""r8"">0</Current><DateUtc dt:dt=""string"">2024-01-30T20:12:53Z</DateUtc></FrequencyChange></FrequencyChanges></Clock>\n",2.0.10.252,2.0.10.356,2.0.10.356,Professional,1.0.0.1
Proc1,,List9,,,,,,,864,1,868,868,1674,1,0,,4,,,,,,,,,,,,,,,,,7,1,7,,,,,,,,,,,,,,,,,,,,,,DelayDiscountingTitrated Backup1,01-30-2024,15:12:53,1/30/2024 8:12:53 PM,3084,1,19,DelayDiscountingTitrated Backup1-3084-1,1417306334,1,60.018,"<?xml version=""1.0""?>\n<Clock xmlns:dt=""urn:schemas-microsoft-com:datatypes""><Description dt:dt=""string"">E-Prime Primary Realtime Clock</Description><StartTime><Timestamp dt:dt=""int"">0</Timestamp><DateUtc dt:dt=""string"">2024-01-30T20:12:53Z</DateUtc></StartTime><FrequencyChanges><FrequencyChange><Frequency dt:dt=""r8"">10000000</Frequency><Timestamp dt:dt=""r8"">9755286003634</Timestamp><Current dt:dt=""r8"">0</Current><DateUtc dt:dt=""string"">2024-01-30T20:12:53Z</DateUtc></FrequencyChange></FrequencyChanges></Clock>\n",2.0.10.252,2.0.10.356,2.0.10.356,Professional,1.0.0.1
Proc1,,List9,,,,,,,866,3,864,864,1286,3,0,,2,,,,,,,,,,,,,,,,,8,1,8,,,,,,,,,,,,,,,,,,,,,,DelayDiscountingTitrated Backup1,01-30-2024,15:12:53,1/30/2024 8:12:53 PM,3084,1,19,DelayDiscountingTitrated Backup1-3084-1,1417306334,1,60.018,"<?xml version=""1.0""?>\n<Clock xmlns:dt=""urn:schemas-microsoft-com:datatypes""><Description dt:dt=""string"">E-Prime Primary Realtime Clock</Description><StartTime><Timestamp dt:dt=""int"">0</Timestamp><DateUtc dt:dt=""string"">2024-01-30T20:12:53Z</DateUtc></StartTime><FrequencyChanges><FrequencyChange><Frequency dt:dt=""r8"">10000000</Frequency><Timestamp dt:dt=""r8"">9755286003634</Timestamp><Current dt:dt=""r8"">0</Current><DateUtc dt:dt=""string"">2024-01-30T20:12:53Z</DateUtc></FrequencyChange></FrequencyChanges></Clock>\n",2.0.10.252,2.0.10.356,2.0.10.356,Professional,1.0.0.1
Proc1,,List9,,,,,,,865,1,866,866,1482,1,0,,1,,,,,,,,,,,,,,,,,9,1,9,,,,,,,,,,,,,,,,,,,,,,DelayDiscountingTitrated Backup1,01-30-2024,15:12:53,1/30/2024 8:12:53 PM,3084,1,19,DelayDiscountingTitrated Backup1-3084-1,1417306334,1,60.018,"<?xml version=""1.0""?>\n<Clock xmlns:dt=""urn:schemas-microsoft-com:datatypes""><Description dt:dt=""string"">E-Prime Primary Realtime Clock</Description><StartTime><Timestamp dt:dt=""int"">0</Timestamp><DateUtc dt:dt=""string"">2024-01-30T20:12:53Z</DateUtc></StartTime><FrequencyChanges><FrequencyChange><Frequency dt:dt=""r8"">10000000</Frequency><Timestamp dt:dt=""r8"">9755286003634</Timestamp><Current dt:dt=""r8"">0</Current><DateUtc dt:dt=""string"">2024-01-30T20:12:53Z</DateUtc></FrequencyChange></FrequencyChanges></Clock>\n",2.0.10.252,2.0.10.356,2.0.10.356,Professional,1.0.0.1
Proc1,,List9,,,,,,,865,3,866,865,1717,3,0,,,,,,,,,,,,,,,,,,,10,1,10,,,,,,,,,,,,,,,,,,,,,,DelayDiscountingTitrated Backup1,01-30-2024,15:12:53,1/30/2024 8:12:53 PM,3084,1,19,DelayDiscountingTitrated Backup1-3084-1,1417306334,1,60.018,"<?xml version=""1.0""?>\n<Clock xmlns:dt=""urn:schemas-microsoft-com:datatypes""><Description dt:dt=""string"">E-Prime Primary Realtime Clock</Description><StartTime><Timestamp dt:dt=""int"">0</Timestamp><DateUtc dt:dt=""string"">2024-01-30T20:12:53Z</DateUtc></StartTime><FrequencyChanges><FrequencyChange><Frequency dt:dt=""r8"">10000000</Frequency><Timestamp dt:dt=""r8"">9755286003634</Timestamp><Current dt:dt=""r8"">0</Current><DateUtc dt:dt=""string"">2024-01-30T20:12:53Z</DateUtc></FrequencyChange></FrequencyChanges></Clock>\n",2.0.10.252,2.0.10.356,2.0.10.356,Professional,1.0.0.1
discount1,,List4,,,,,,,,,,,,,,,,500,1 month,30,,,,,,,,,,,,,,,,,2,1,1,,,,,,,,,,,,,,,,,,,DelayDiscountingTitrated Backup1,01-30-2024,15:12:53,1/30/2024 8:12:53 PM,3084,1,19,DelayDiscountingTitrated Backup1-3084-1,1417306334,1,60.018,"<?xml version=""1.0""?>\n<Clock xmlns:dt=""urn:schemas-microsoft-com:datatypes""><Description dt:dt=""string"">E-Prime Primary Realtime Clock</Description><StartTime><Timestamp dt:dt=""int"">0</Timestamp><DateUtc dt:dt=""string"">2024-01-30T20:12:53Z</DateUtc></StartTime><FrequencyChanges><FrequencyChange><Frequency dt:dt=""r8"">10000000</Frequency><Timestamp dt:dt=""r8"">9755286003634</Timestamp><Current dt:dt=""r8"">0</Current><DateUtc dt:dt=""string"">2024-01-30T20:12:53Z</DateUtc></FrequencyChange></FrequencyChanges></Clock>\n",2.0.10.252,2.0.10.356,2.0.10.356,Professional,1.0.0.1
onemthproc,,List1,,,,,,,,,,,,,,,,,,,,,,2,1,3,3,,,,,,,,,,,,,,,,,,,,,,,,,,,,,,,DelayDiscountingTitrated Backup1,01-30-2024,15:12:53,1/30/2024 8:12:53 PM,3084,1,19,DelayDiscountingTitrated Backup1-3084-1,1417306334,1,60.018,"<?xml version=""1.0""?>\n<Clock xmlns:dt=""urn:schemas-microsoft-com:datatypes""><Description dt:dt=""string"">E-Prime Primary Realtime Clock</Description><StartTime><Timestamp dt:dt=""int"">0</Timestamp><DateUtc dt:dt=""string"">2024-01-30T20:12:53Z</DateUtc></StartTime><FrequencyChanges><FrequencyChange><Frequency dt:dt=""r8"">10000000</Frequency><Timestamp dt:dt=""r8"">9755286003634</Timestamp><Current dt:dt=""r8"">0</Current><DateUtc dt:dt=""string"">2024-01-30T20:12:53Z</DateUtc></FrequencyChange></FrequencyChanges></Clock>\n",2.0.10.252,2.0.10.356,2.0.10.356,Professional,1.0.0.1
Init5,,List13,,,3807,1,0,,100,1,200,,,,,,,,,,,,,,,,,,,,,,,,,,,,,1,1,1,,,,,,,,,,,,,,,,DelayDiscountingTitrated Backup1,01-30-2024,15:12:53,1/30/2024 8:12:53 PM,3084,1,19,DelayDiscountingTitrated Backup1-3084-1,1417306334,1,60.018,"<?xml version=""1.0""?>\n<Clock xmlns:dt=""urn:schemas-microsoft-com:datatypes""><Description dt:dt=""string"">E-Prime Primary Realtime Clock</Description><StartTime><Timestamp dt:dt=""int"">0</Timestamp><DateUtc dt:dt=""string"">2024-01-30T20:12:53Z</DateUtc></StartTime><FrequencyChanges><FrequencyChange><Frequency dt:dt=""r8"">10000000</Frequency><Timestamp dt:dt=""r8"">9755286003634</Timestamp><Current dt:dt=""r8"">0</Current><DateUtc dt:dt=""string"">2024-01-30T20:12:53Z</DateUtc></FrequencyChange></FrequencyChanges></Clock>\n",2.0.10.252,2.0.10.356,2.0.10.356,Professional,1.0.0.1
Proc5,,List13,,,,,,,150,3,100,100,2142,3,0,,50,,,,,,,,,,,,,,,,,,,,,,,2,1,2,,,,,,,,,,,,,,,,DelayDiscountingTitrated Backup1,01-30-2024,15:12:53,1/30/2024 8:12:53 PM,3084,1,19,DelayDiscountingTitrated Backup1-3084-1,1417306334,1,60.018,"<?xml version=""1.0""?>\n<Clock xmlns:dt=""urn:schemas-microsoft-com:datatypes""><Description dt:dt=""string"">E-Prime Primary Realtime Clock</Description><StartTime><Timestamp dt:dt=""int"">0</Timestamp><DateUtc dt:dt=""string"">2024-01-30T20:12:53Z</DateUtc></StartTime><FrequencyChanges><FrequencyChange><Frequency dt:dt=""r8"">10000000</Frequency><Timestamp dt:dt=""r8"">9755286003634</Timestamp><Current dt:dt=""r8"">0</Current><DateUtc dt:dt=""string"">2024-01-30T20:12:53Z</DateUtc></FrequencyChange></FrequencyChanges></Clock>\n",2.0.10.252,2.0.10.356,2.0.10.356,Professional,1.0.0.1
Proc5,,List13,,,,,,,175,3,150,150,1368,3,0,,25,,,,,,,,,,,,,,,,,,,,,,,3,1,3,,,,,,,,,,,,,,,,DelayDiscountingTitrated Backup1,01-30-2024,15:12:53,1/30/2024 8:12:53 PM,3084,1,19,DelayDiscountingTitrated Backup1-3084-1,1417306334,1,60.018,"<?xml version=""1.0""?>\n<Clock xmlns:dt=""urn:schemas-microsoft-com:datatypes""><Description dt:dt=""string"">E-Prime Primary Realtime Clock</Description><StartTime><Timestamp dt:dt=""int"">0</Timestamp><DateUtc dt:dt=""string"">2024-01-30T20:12:53Z</DateUtc></StartTime><FrequencyChanges><FrequencyChange><Frequency dt:dt=""r8"">10000000</Frequency><Timestamp dt:dt=""r8"">9755286003634</Timestamp><Current dt:dt=""r8"">0</Current><DateUtc dt:dt=""string"">2024-01-30T20:12:53Z</DateUtc></FrequencyChange></FrequencyChanges></Clock>\n",2.0.10.252,2.0.10.356,2.0.10.356,Professional,1.0.0.1
Proc5,,List13,,,,,,,187,3,175,175,784,3,0,,12,,,,,,,,,,,,,,,,,,,,,,,4,1,4,,,,,,,,,,,,,,,,DelayDiscountingTitrated Backup1,01-30-2024,15:12:53,1/30/2024 8:12:53 PM,3084,1,19,DelayDiscountingTitrated Backup1-3084-1,1417306334,1,60.018,"<?xml version=""1.0""?>\n<Clock xmlns:dt=""urn:schemas-microsoft-com:datatypes""><Description dt:dt=""string"">E-Prime Primary Realtime Clock</Description><StartTime><Timestamp dt:dt=""int"">0</Timestamp><DateUtc dt:dt=""string"">2024-01-30T20:12:53Z</DateUtc></StartTime><FrequencyChanges><FrequencyChange><Frequency dt:dt=""r8"">10000000</Frequency><Timestamp dt:dt=""r8"">9755286003634</Timestamp><Current dt:dt=""r8"">0</Current><DateUtc dt:dt=""string"">2024-01-30T20:12:53Z</DateUtc></FrequencyChange></FrequencyChanges></Clock>\n",2.0.10.252,2.0.10.356,2.0.10.356,Professional,1.0.0.1
Proc5,,List13,,,,,,,193,3,187,187,1647,3,0,,6,,,,,,,,,,,,,,,,,,,,,,,5,1,5,,,,,,,,,,,,,,,,DelayDiscountingTitrated Backup1,01-30-2024,15:12:53,1/30/2024 8:12:53 PM,3084,1,19,DelayDiscountingTitrated Backup1-3084-1,1417306334,1,60.018,"<?xml version=""1.0""?>\n<Clock xmlns:dt=""urn:schemas-microsoft-com:datatypes""><Description dt:dt=""string"">E-Prime Primary Realtime Clock</Description><StartTime><Timestamp dt:dt=""int"">0</Timestamp><DateUtc dt:dt=""string"">2024-01-30T20:12:53Z</DateUtc></StartTime><FrequencyChanges><FrequencyChange><Frequency dt:dt=""r8"">10000000</Frequency><Timestamp dt:dt=""r8"">9755286003634</Timestamp><Current dt:dt=""r8"">0</Current><DateUtc dt:dt=""string"">2024-01-30T20:12:53Z</DateUtc></FrequencyChange></FrequencyChanges></Clock>\n",2.0.10.252,2.0.10.356,2.0.10.356,Professional,1.0.0.1
Proc5,,List13,,,,,,,196,3,193,193,932,3,0,,3,,,,,,,,,,,,,,,,,,,,,,,6,1,6,,,,,,,,,,,,,,,,DelayDiscountingTitrated Backup1,01-30-2024,15:12:53,1/30/2024 8:12:53 PM,3084,1,19,DelayDiscountingTitrated Backup1-3084-1,1417306334,1,60.018,"<?xml version=""1.0""?>\n<Clock xmlns:dt=""urn:schemas-microsoft-com:datatypes""><Description dt:dt=""string"">E-Prime Primary Realtime Clock</Description><StartTime><Timestamp dt:dt=""int"">0</Timestamp><DateUtc dt:dt=""string"">2024-01-30T20:12:53Z</DateUtc></StartTime><FrequencyChanges><FrequencyChange><Frequency dt:dt=""r8"">10000000</Frequency><Timestamp dt:dt=""r8"">9755286003634</Timestamp><Current dt:dt=""r8"">0</Current><DateUtc dt:dt=""string"">2024-01-30T20:12:53Z</DateUtc></FrequencyChange></FrequencyChanges></Clock>\n",2.0.10.252,2.0.10.356,2.0.10.356,Professional,1.0.0.1
Proc5,,List13,,,,,,,198,3,196,196,870,3,0,,2,,,,,,,,,,,,,,,,,,,,,,,7,1,7,,,,,,,,,,,,,,,,DelayDiscountingTitrated Backup1,01-30-2024,15:12:53,1/30/2024 8:12:53 PM,3084,1,19,DelayDiscountingTitrated Backup1-3084-1,1417306334,1,60.018,"<?xml version=""1.0""?>\n<Clock xmlns:dt=""urn:schemas-microsoft-com:datatypes""><Description dt:dt=""string"">E-Prime Primary Realtime Clock</Description><StartTime><Timestamp dt:dt=""int"">0</Timestamp><DateUtc dt:dt=""string"">2024-01-30T20:12:53Z</DateUtc></StartTime><FrequencyChanges><FrequencyChange><Frequency dt:dt=""r8"">10000000</Frequency><Timestamp dt:dt=""r8"">9755286003634</Timestamp><Current dt:dt=""r8"">0</Current><DateUtc dt:dt=""string"">2024-01-30T20:12:53Z</DateUtc></FrequencyChange></FrequencyChanges></Clock>\n",2.0.10.252,2.0.10.356,2.0.10.356,Professional,1.0.0.1
Proc5,,List13,,,,,,,199,3,198,198,1522,3,0,,1,,,,,,,,,,,,,,,,,,,,,,,8,1,8,,,,,,,,,,,,,,,,DelayDiscountingTitrated Backup1,01-30-2024,15:12:53,1/30/2024 8:12:53 PM,3084,1,19,DelayDiscountingTitrated Backup1-3084-1,1417306334,1,60.018,"<?xml version=""1.0""?>\n<Clock xmlns:dt=""urn:schemas-microsoft-com:datatypes""><Description dt:dt=""string"">E-Prime Primary Realtime Clock</Description><StartTime><Timestamp dt:dt=""int"">0</Timestamp><DateUtc dt:dt=""string"">2024-01-30T20:12:53Z</DateUtc></StartTime><FrequencyChanges><FrequencyChange><Frequency dt:dt=""r8"">10000000</Frequency><Timestamp dt:dt=""r8"">9755286003634</Timestamp><Current dt:dt=""r8"">0</Current><DateUtc dt:dt=""string"">2024-01-30T20:12:53Z</DateUtc></FrequencyChange></FrequencyChanges></Clock>\n",2.0.10.252,2.0.10.356,2.0.10.356,Professional,1.0.0.1
Proc5,,List13,,,,,,,199,3,198,199,692,3,0,,,,,,,,,,,,,,,,,,,,,,,,,9,1,9,,,,,,,,,,,,,,,,DelayDiscountingTitrated Backup1,01-30-2024,15:12:53,1/30/2024 8:12:53 PM,3084,1,19,DelayDiscountingTitrated Backup1-3084-1,1417306334,1,60.018,"<?xml version=""1.0""?>\n<Clock xmlns:dt=""urn:schemas-microsoft-com:datatypes""><Description dt:dt=""string"">E-Prime Primary Realtime Clock</Description><StartTime><Timestamp dt:dt=""int"">0</Timestamp><DateUtc dt:dt=""string"">2024-01-30T20:12:53Z</DateUtc></StartTime><FrequencyChanges><FrequencyChange><Frequency dt:dt=""r8"">10000000</Frequency><Timestamp dt:dt=""r8"">9755286003634</Timestamp><Current dt:dt=""r8"">0</Current><DateUtc dt:dt=""string"">2024-01-30T20:12:53Z</DateUtc></FrequencyChange></FrequencyChanges></Clock>\n",2.0.10.252,2.0.10.356,2.0.10.356,Professional,1.0.0.1
discount5,,List8,,,,,,,,,,,,,,,,200,15 years,5475,,,,,,,,,,,,,,,,,,,,,,,1,2,1,,,,,,,,,,,,,DelayDiscountingTitrated Backup1,01-30-2024,15:12:53,1/30/2024 8:12:53 PM,3084,1,19,DelayDiscountingTitrated Backup1-3084-1,1417306334,1,60.018,"<?xml version=""1.0""?>\n<Clock xmlns:dt=""urn:schemas-microsoft-com:datatypes""><Description dt:dt=""string"">E-Prime Primary Realtime Clock</Description><StartTime><Timestamp dt:dt=""int"">0</Timestamp><DateUtc dt:dt=""string"">2024-01-30T20:12:53Z</DateUtc></StartTime><FrequencyChanges><FrequencyChange><Frequency dt:dt=""r8"">10000000</Frequency><Timestamp dt:dt=""r8"">9755286003634</Timestamp><Current dt:dt=""r8"">0</Current><DateUtc dt:dt=""string"">2024-01-30T20:12:53Z</DateUtc></FrequencyChange></FrequencyChanges></Clock>\n",2.0.10.252,2.0.10.356,2.0.10.356,Professional,1.0.0.1
fifteenyearproc,,List1,,,,,,,,,,,,,,,,,,,,,,6,1,4,4,,,,,,,,,,,,,,,,,,,,,,,,,,,,,,,DelayDiscountingTitrated Backup1,01-30-2024,15:12:53,1/30/2024 8:12:53 PM,3084,1,19,DelayDiscountingTitrated Backup1-3084-1,1417306334,1,60.018,"<?xml version=""1.0""?>\n<Clock xmlns:dt=""urn:schemas-microsoft-com:datatypes""><Description dt:dt=""string"">E-Prime Primary Realtime Clock</Description><StartTime><Timestamp dt:dt=""int"">0</Timestamp><DateUtc dt:dt=""string"">2024-01-30T20:12:53Z</DateUtc></StartTime><FrequencyChanges><FrequencyChange><Frequency dt:dt=""r8"">10000000</Frequency><Timestamp dt:dt=""r8"">9755286003634</Timestamp><Current dt:dt=""r8"">0</Current><DateUtc dt:dt=""string"">2024-01-30T20:12:53Z</DateUtc></FrequencyChange></FrequencyChanges></Clock>\n",2.0.10.252,2.0.10.356,2.0.10.356,Professional,1.0.0.1
TrialProcInit,,List2,,,2839,3,0,,900,3,800,,,,,,,,,,,,,,,,,,,,,,,,,,,,,,,,,,,1,1,1,,,,,,,,,,DelayDiscountingTitrated Backup1,01-30-2024,15:12:53,1/30/2024 8:12:53 PM,3084,1,19,DelayDiscountingTitrated Backup1-3084-1,1417306334,1,60.018,"<?xml version=""1.0""?>\n<Clock xmlns:dt=""urn:schemas-microsoft-com:datatypes""><Description dt:dt=""string"">E-Prime Primary Realtime Clock</Description><StartTime><Timestamp dt:dt=""int"">0</Timestamp><DateUtc dt:dt=""string"">2024-01-30T20:12:53Z</DateUtc></StartTime><FrequencyChanges><FrequencyChange><Frequency dt:dt=""r8"">10000000</Frequency><Timestamp dt:dt=""r8"">9755286003634</Timestamp><Current dt:dt=""r8"">0</Current><DateUtc dt:dt=""string"">2024-01-30T20:12:53Z</DateUtc></FrequencyChange></FrequencyChanges></Clock>\n",2.0.10.252,2.0.10.356,2.0.10.356,Professional,1.0.0.1
TrialProc,,List2,,,,,,,950,3,900,900,2445,3,0,,50,,,,,,,,,,,,,,,,,,,,,,,,,,,,,2,1,2,,,,,,,,,,DelayDiscountingTitrated Backup1,01-30-2024,15:12:53,1/30/2024 8:12:53 PM,3084,1,19,DelayDiscountingTitrated Backup1-3084-1,1417306334,1,60.018,"<?xml version=""1.0""?>\n<Clock xmlns:dt=""urn:schemas-microsoft-com:datatypes""><Description dt:dt=""string"">E-Prime Primary Realtime Clock</Description><StartTime><Timestamp dt:dt=""int"">0</Timestamp><DateUtc dt:dt=""string"">2024-01-30T20:12:53Z</DateUtc></StartTime><FrequencyChanges><FrequencyChange><Frequency dt:dt=""r8"">10000000</Frequency><Timestamp dt:dt=""r8"">9755286003634</Timestamp><Current dt:dt=""r8"">0</Current><DateUtc dt:dt=""string"">2024-01-30T20:12:53Z</DateUtc></FrequencyChange></FrequencyChanges></Clock>\n",2.0.10.252,2.0.10.356,2.0.10.356,Professional,1.0.0.1
TrialProc,,List2,,,,,,,975,3,950,950,2698,3,0,,25,,,,,,,,,,,,,,,,,,,,,,,,,,,,,3,1,3,,,,,,,,,,DelayDiscountingTitrated Backup1,01-30-2024,15:12:53,1/30/2024 8:12:53 PM,3084,1,19,DelayDiscountingTitrated Backup1-3084-1,1417306334,1,60.018,"<?xml version=""1.0""?>\n<Clock xmlns:dt=""urn:schemas-microsoft-com:datatypes""><Description dt:dt=""string"">E-Prime Primary Realtime Clock</Description><StartTime><Timestamp dt:dt=""int"">0</Timestamp><DateUtc dt:dt=""string"">2024-01-30T20:12:53Z</DateUtc></StartTime><FrequencyChanges><FrequencyChange><Frequency dt:dt=""r8"">10000000</Frequency><Timestamp dt:dt=""r8"">9755286003634</Timestamp><Current dt:dt=""r8"">0</Current><DateUtc dt:dt=""string"">2024-01-30T20:12:53Z</DateUtc></FrequencyChange></FrequencyChanges></Clock>\n",2.0.10.252,2.0.10.356,2.0.10.356,Professional,1.0.0.1
TrialProc,,List2,,,,,,,963,1,975,975,813,1,0,,12,,,,,,,,,,,,,,,,,,,,,,,,,,,,,4,1,4,,,,,,,,,,DelayDiscountingTitrated Backup1,01-30-2024,15:12:53,1/30/2024 8:12:53 PM,3084,1,19,DelayDiscountingTitrated Backup1-3084-1,1417306334,1,60.018,"<?xml version=""1.0""?>\n<Clock xmlns:dt=""urn:schemas-microsoft-com:datatypes""><Description dt:dt=""string"">E-Prime Primary Realtime Clock</Description><StartTime><Timestamp dt:dt=""int"">0</Timestamp><DateUtc dt:dt=""string"">2024-01-30T20:12:53Z</DateUtc></StartTime><FrequencyChanges><FrequencyChange><Frequency dt:dt=""r8"">10000000</Frequency><Timestamp dt:dt=""r8"">9755286003634</Timestamp><Current dt:dt=""r8"">0</Current><DateUtc dt:dt=""string"">2024-01-30T20:12:53Z</DateUtc></FrequencyChange></FrequencyChanges></Clock>\n",2.0.10.252,2.0.10.356,2.0.10.356,Professional,1.0.0.1
TrialProc,,List2,,,,,,,957,1,963,963,1235,1,0,,6,,,,,,,,,,,,,,,,,,,,,,,,,,,,,5,1,5,,,,,,,,,,DelayDiscountingTitrated Backup1,01-30-2024,15:12:53,1/30/2024 8:12:53 PM,3084,1,19,DelayDiscountingTitrated Backup1-3084-1,1417306334,1,60.018,"<?xml version=""1.0""?>\n<Clock xmlns:dt=""urn:schemas-microsoft-com:datatypes""><Description dt:dt=""string"">E-Prime Primary Realtime Clock</Description><StartTime><Timestamp dt:dt=""int"">0</Timestamp><DateUtc dt:dt=""string"">2024-01-30T20:12:53Z</DateUtc></StartTime><FrequencyChanges><FrequencyChange><Frequency dt:dt=""r8"">10000000</Frequency><Timestamp dt:dt=""r8"">9755286003634</Timestamp><Current dt:dt=""r8"">0</Current><DateUtc dt:dt=""string"">2024-01-30T20:12:53Z</DateUtc></FrequencyChange></FrequencyChanges></Clock>\n",2.0.10.252,2.0.10.356,2.0.10.356,Professional,1.0.0.1
TrialProc,,List2,,,,,,,954,1,957,957,952,1,0,,3,,,,,,,,,,,,,,,,,,,,,,,,,,,,,6,1,6,,,,,,,,,,DelayDiscountingTitrated Backup1,01-30-2024,15:12:53,1/30/2024 8:12:53 PM,3084,1,19,DelayDiscountingTitrated Backup1-3084-1,1417306334,1,60.018,"<?xml version=""1.0""?>\n<Clock xmlns:dt=""urn:schemas-microsoft-com:datatypes""><Description dt:dt=""string"">E-Prime Primary Realtime Clock</Description><StartTime><Timestamp dt:dt=""int"">0</Timestamp><DateUtc dt:dt=""string"">2024-01-30T20:12:53Z</DateUtc></StartTime><FrequencyChanges><FrequencyChange><Frequency dt:dt=""r8"">10000000</Frequency><Timestamp dt:dt=""r8"">9755286003634</Timestamp><Current dt:dt=""r8"">0</Current><DateUtc dt:dt=""string"">2024-01-30T20:12:53Z</DateUtc></FrequencyChange></FrequencyChanges></Clock>\n",2.0.10.252,2.0.10.356,2.0.10.356,Professional,1.0.0.1
TrialProc,,List2,,,,,,,956,3,954,954,1137,3,0,,2,,,,,,,,,,,,,,,,,,,,,,,,,,,,,7,1,7,,,,,,,,,,DelayDiscountingTitrated Backup1,01-30-2024,15:12:53,1/30/2024 8:12:53 PM,3084,1,19,DelayDiscountingTitrated Backup1-3084-1,1417306334,1,60.018,"<?xml version=""1.0""?>\n<Clock xmlns:dt=""urn:schemas-microsoft-com:datatypes""><Description dt:dt=""string"">E-Prime Primary Realtime Clock</Description><StartTime><Timestamp dt:dt=""int"">0</Timestamp><DateUtc dt:dt=""string"">2024-01-30T20:12:53Z</DateUtc></StartTime><FrequencyChanges><FrequencyChange><Frequency dt:dt=""r8"">10000000</Frequency><Timestamp dt:dt=""r8"">9755286003634</Timestamp><Current dt:dt=""r8"">0</Current><DateUtc dt:dt=""string"">2024-01-30T20:12:53Z</DateUtc></FrequencyChange></FrequencyChanges></Clock>\n",2.0.10.252,2.0.10.356,2.0.10.356,Professional,1.0.0.1
TrialProc,,List2,,,,,,,957,3,956,956,1362,3,0,,1,,,,,,,,,,,,,,,,,,,,,,,,,,,,,8,1,8,,,,,,,,,,DelayDiscountingTitrated Backup1,01-30-2024,15:12:53,1/30/2024 8:12:53 PM,3084,1,19,DelayDiscountingTitrated Backup1-3084-1,1417306334,1,60.018,"<?xml version=""1.0""?>\n<Clock xmlns:dt=""urn:schemas-microsoft-com:datatypes""><Description dt:dt=""string"">E-Prime Primary Realtime Clock</Description><StartTime><Timestamp dt:dt=""int"">0</Timestamp><DateUtc dt:dt=""string"">2024-01-30T20:12:53Z</DateUtc></StartTime><FrequencyChanges><FrequencyChange><Frequency dt:dt=""r8"">10000000</Frequency><Timestamp dt:dt=""r8"">9755286003634</Timestamp><Current dt:dt=""r8"">0</Current><DateUtc dt:dt=""string"">2024-01-30T20:12:53Z</DateUtc></FrequencyChange></FrequencyChanges></Clock>\n",2.0.10.252,2.0.10.356,2.0.10.356,Professional,1.0.0.1
TrialProc,,List2,,,,,,,957,3,956,957,3762,3,0,,,,,,,,,,,,,,,,,,,,,,,,,,,,,,,9,1,9,,,,,,,,,,DelayDiscountingTitrated Backup1,01-30-2024,15:12:53,1/30/2024 8:12:53 PM,3084,1,19,DelayDiscountingTitrated Backup1-3084-1,1417306334,1,60.018,"<?xml version=""1.0""?>\n<Clock xmlns:dt=""urn:schemas-microsoft-com:datatypes""><Description dt:dt=""string"">E-Prime Primary Realtime Clock</Description><StartTime><Timestamp dt:dt=""int"">0</Timestamp><DateUtc dt:dt=""string"">2024-01-30T20:12:53Z</DateUtc></StartTime><FrequencyChanges><FrequencyChange><Frequency dt:dt=""r8"">10000000</Frequency><Timestamp dt:dt=""r8"">9755286003634</Timestamp><Current dt:dt=""r8"">0</Current><DateUtc dt:dt=""string"">2024-01-30T20:12:53Z</DateUtc></FrequencyChange></FrequencyChanges></Clock>\n",2.0.10.252,2.0.10.356,2.0.10.356,Professional,1.0.0.1
discount,,List3,,,,,,,,,,,,,,,,800,1 week,7,,,,,,,,,,,,,,,,,,,,,,,,,,,,,3,1,1,,,,,,,DelayDiscountingTitrated Backup1,01-30-2024,15:12:53,1/30/2024 8:12:53 PM,3084,1,19,DelayDiscountingTitrated Backup1-3084-1,1417306334,1,60.018,"<?xml version=""1.0""?>\n<Clock xmlns:dt=""urn:schemas-microsoft-com:datatypes""><Description dt:dt=""string"">E-Prime Primary Realtime Clock</Description><StartTime><Timestamp dt:dt=""int"">0</Timestamp><DateUtc dt:dt=""string"">2024-01-30T20:12:53Z</DateUtc></StartTime><FrequencyChanges><FrequencyChange><Frequency dt:dt=""r8"">10000000</Frequency><Timestamp dt:dt=""r8"">9755286003634</Timestamp><Current dt:dt=""r8"">0</Current><DateUtc dt:dt=""string"">2024-01-30T20:12:53Z</DateUtc></FrequencyChange></FrequencyChanges></Clock>\n",2.0.10.252,2.0.10.356,2.0.10.356,Professional,1.0.0.1
onewkproc,,List1,,,,,,,,,,,,,,,,,,,,,,1,1,5,5,,,,,,,,,,,,,,,,,,,,,,,,,,,,,,,DelayDiscountingTitrated Backup1,01-30-2024,15:12:53,1/30/2024 8:12:53 PM,3084,1,19,DelayDiscountingTitrated Backup1-3084-1,1417306334,1,60.018,"<?xml version=""1.0""?>\n<Clock xmlns:dt=""urn:schemas-microsoft-com:datatypes""><Description dt:dt=""string"">E-Prime Primary Realtime Clock</Description><StartTime><Timestamp dt:dt=""int"">0</Timestamp><DateUtc dt:dt=""string"">2024-01-30T20:12:53Z</DateUtc></StartTime><FrequencyChanges><FrequencyChange><Frequency dt:dt=""r8"">10000000</Frequency><Timestamp dt:dt=""r8"">9755286003634</Timestamp><Current dt:dt=""r8"">0</Current><DateUtc dt:dt=""string"">2024-01-30T20:12:53Z</DateUtc></FrequencyChange></FrequencyChanges></Clock>\n",2.0.10.252,2.0.10.356,2.0.10.356,Professional,1.0.0.1
Init2,,List10,,,7184,3,0,,600,3,200,,,,,,,,,,,,,,,,,,,,,,,,,,,,,,,,,,,,,,,,,1,1,1,,,,DelayDiscountingTitrated Backup1,01-30-2024,15:12:53,1/30/2024 8:12:53 PM,3084,1,19,DelayDiscountingTitrated Backup1-3084-1,1417306334,1,60.018,"<?xml version=""1.0""?>\n<Clock xmlns:dt=""urn:schemas-microsoft-com:datatypes""><Description dt:dt=""string"">E-Prime Primary Realtime Clock</Description><StartTime><Timestamp dt:dt=""int"">0</Timestamp><DateUtc dt:dt=""string"">2024-01-30T20:12:53Z</DateUtc></StartTime><FrequencyChanges><FrequencyChange><Frequency dt:dt=""r8"">10000000</Frequency><Timestamp dt:dt=""r8"">9755286003634</Timestamp><Current dt:dt=""r8"">0</Current><DateUtc dt:dt=""string"">2024-01-30T20:12:53Z</DateUtc></FrequencyChange></FrequencyChanges></Clock>\n",2.0.10.252,2.0.10.356,2.0.10.356,Professional,1.0.0.1
Proc2,,List10,,,,,,,800,3,600,600,2465,3,0,,200,,,,,,,,,,,,,,,,,,,,,,,,,,,,,,,,,,,2,1,2,,,,DelayDiscountingTitrated Backup1,01-30-2024,15:12:53,1/30/2024 8:12:53 PM,3084,1,19,DelayDiscountingTitrated Backup1-3084-1,1417306334,1,60.018,"<?xml version=""1.0""?>\n<Clock xmlns:dt=""urn:schemas-microsoft-com:datatypes""><Description dt:dt=""string"">E-Prime Primary Realtime Clock</Description><StartTime><Timestamp dt:dt=""int"">0</Timestamp><DateUtc dt:dt=""string"">2024-01-30T20:12:53Z</DateUtc></StartTime><FrequencyChanges><FrequencyChange><Frequency dt:dt=""r8"">10000000</Frequency><Timestamp dt:dt=""r8"">9755286003634</Timestamp><Current dt:dt=""r8"">0</Current><DateUtc dt:dt=""string"">2024-01-30T20:12:53Z</DateUtc></FrequencyChange></FrequencyChanges></Clock>\n",2.0.10.252,2.0.10.356,2.0.10.356,Professional,1.0.0.1
Proc2,,List10,,,,,,,700,1,800,800,2142,1,0,,100,,,,,,,,,,,,,,,,,,,,,,,,,,,,,,,,,,,3,1,3,,,,DelayDiscountingTitrated Backup1,01-30-2024,15:12:53,1/30/2024 8:12:53 PM,3084,1,19,DelayDiscountingTitrated Backup1-3084-1,1417306334,1,60.018,"<?xml version=""1.0""?>\n<Clock xmlns:dt=""urn:schemas-microsoft-com:datatypes""><Description dt:dt=""string"">E-Prime Primary Realtime Clock</Description><StartTime><Timestamp dt:dt=""int"">0</Timestamp><DateUtc dt:dt=""string"">2024-01-30T20:12:53Z</DateUtc></StartTime><FrequencyChanges><FrequencyChange><Frequency dt:dt=""r8"">10000000</Frequency><Timestamp dt:dt=""r8"">9755286003634</Timestamp><Current dt:dt=""r8"">0</Current><DateUtc dt:dt=""string"">2024-01-30T20:12:53Z</DateUtc></FrequencyChange></FrequencyChanges></Clock>\n",2.0.10.252,2.0.10.356,2.0.10.356,Professional,1.0.0.1
Proc2,,List10,,,,,,,650,1,700,700,943,1,0,,50,,,,,,,,,,,,,,,,,,,,,,,,,,,,,,,,,,,4,1,4,,,,DelayDiscountingTitrated Backup1,01-30-2024,15:12:53,1/30/2024 8:12:53 PM,3084,1,19,DelayDiscountingTitrated Backup1-3084-1,1417306334,1,60.018,"<?xml version=""1.0""?>\n<Clock xmlns:dt=""urn:schemas-microsoft-com:datatypes""><Description dt:dt=""string"">E-Prime Primary Realtime Clock</Description><StartTime><Timestamp dt:dt=""int"">0</Timestamp><DateUtc dt:dt=""string"">2024-01-30T20:12:53Z</DateUtc></StartTime><FrequencyChanges><FrequencyChange><Frequency dt:dt=""r8"">10000000</Frequency><Timestamp dt:dt=""r8"">9755286003634</Timestamp><Current dt:dt=""r8"">0</Current><DateUtc dt:dt=""string"">2024-01-30T20:12:53Z</DateUtc></FrequencyChange></FrequencyChanges></Clock>\n",2.0.10.252,2.0.10.356,2.0.10.356,Professional,1.0.0.1
Proc2,,List10,,,,,,,675,3,650,650,1281,3,0,,25,,,,,,,,,,,,,,,,,,,,,,,,,,,,,,,,,,,5,1,5,,,,DelayDiscountingTitrated Backup1,01-30-2024,15:12:53,1/30/2024 8:12:53 PM,3084,1,19,DelayDiscountingTitrated Backup1-3084-1,1417306334,1,60.018,"<?xml version=""1.0""?>\n<Clock xmlns:dt=""urn:schemas-microsoft-com:datatypes""><Description dt:dt=""string"">E-Prime Primary Realtime Clock</Description><StartTime><Timestamp dt:dt=""int"">0</Timestamp><DateUtc dt:dt=""string"">2024-01-30T20:12:53Z</DateUtc></StartTime><FrequencyChanges><FrequencyChange><Frequency dt:dt=""r8"">10000000</Frequency><Timestamp dt:dt=""r8"">9755286003634</Timestamp><Current dt:dt=""r8"">0</Current><DateUtc dt:dt=""string"">2024-01-30T20:12:53Z</DateUtc></FrequencyChange></FrequencyChanges></Clock>\n",2.0.10.252,2.0.10.356,2.0.10.356,Professional,1.0.0.1
Proc2,,List10,,,,,,,687,3,675,675,1036,3,0,,12,,,,,,,,,,,,,,,,,,,,,,,,,,,,,,,,,,,6,1,6,,,,DelayDiscountingTitrated Backup1,01-30-2024,15:12:53,1/30/2024 8:12:53 PM,3084,1,19,DelayDiscountingTitrated Backup1-3084-1,1417306334,1,60.018,"<?xml version=""1.0""?>\n<Clock xmlns:dt=""urn:schemas-microsoft-com:datatypes""><Description dt:dt=""string"">E-Prime Primary Realtime Clock</Description><StartTime><Timestamp dt:dt=""int"">0</Timestamp><DateUtc dt:dt=""string"">2024-01-30T20:12:53Z</DateUtc></StartTime><FrequencyChanges><FrequencyChange><Frequency dt:dt=""r8"">10000000</Frequency><Timestamp dt:dt=""r8"">9755286003634</Timestamp><Current dt:dt=""r8"">0</Current><DateUtc dt:dt=""string"">2024-01-30T20:12:53Z</DateUtc></FrequencyChange></FrequencyChanges></Clock>\n",2.0.10.252,2.0.10.356,2.0.10.356,Professional,1.0.0.1
Proc2,,List10,,,,,,,693,3,687,687,1313,3,0,,6,,,,,,,,,,,,,,,,,,,,,,,,,,,,,,,,,,,7,1,7,,,,DelayDiscountingTitrated Backup1,01-30-2024,15:12:53,1/30/2024 8:12:53 PM,3084,1,19,DelayDiscountingTitrated Backup1-3084-1,1417306334,1,60.018,"<?xml version=""1.0""?>\n<Clock xmlns:dt=""urn:schemas-microsoft-com:datatypes""><Description dt:dt=""string"">E-Prime Primary Realtime Clock</Description><StartTime><Timestamp dt:dt=""int"">0</Timestamp><DateUtc dt:dt=""string"">2024-01-30T20:12:53Z</DateUtc></StartTime><FrequencyChanges><FrequencyChange><Frequency dt:dt=""r8"">10000000</Frequency><Timestamp dt:dt=""r8"">9755286003634</Timestamp><Current dt:dt=""r8"">0</Current><DateUtc dt:dt=""string"">2024-01-30T20:12:53Z</DateUtc></FrequencyChange></FrequencyChanges></Clock>\n",2.0.10.252,2.0.10.356,2.0.10.356,Professional,1.0.0.1
Proc2,,List10,,,,,,,696,3,693,693,1155,3,0,,3,,,,,,,,,,,,,,,,,,,,,,,,,,,,,,,,,,,8,1,8,,,,DelayDiscountingTitrated Backup1,01-30-2024,15:12:53,1/30/2024 8:12:53 PM,3084,1,19,DelayDiscountingTitrated Backup1-3084-1,1417306334,1,60.018,"<?xml version=""1.0""?>\n<Clock xmlns:dt=""urn:schemas-microsoft-com:datatypes""><Description dt:dt=""string"">E-Prime Primary Realtime Clock</Description><StartTime><Timestamp dt:dt=""int"">0</Timestamp><DateUtc dt:dt=""string"">2024-01-30T20:12:53Z</DateUtc></StartTime><FrequencyChanges><FrequencyChange><Frequency dt:dt=""r8"">10000000</Frequency><Timestamp dt:dt=""r8"">9755286003634</Timestamp><Current dt:dt=""r8"">0</Current><DateUtc dt:dt=""string"">2024-01-30T20:12:53Z</DateUtc></FrequencyChange></FrequencyChanges></Clock>\n",2.0.10.252,2.0.10.356,2.0.10.356,Professional,1.0.0.1
Proc2,,List10,,,,,,,698,3,696,696,2428,3,0,,2,,,,,,,,,,,,,,,,,,,,,,,,,,,,,,,,,,,9,1,9,,,,DelayDiscountingTitrated Backup1,01-30-2024,15:12:53,1/30/2024 8:12:53 PM,3084,1,19,DelayDiscountingTitrated Backup1-3084-1,1417306334,1,60.018,"<?xml version=""1.0""?>\n<Clock xmlns:dt=""urn:schemas-microsoft-com:datatypes""><Description dt:dt=""string"">E-Prime Primary Realtime Clock</Description><StartTime><Timestamp dt:dt=""int"">0</Timestamp><DateUtc dt:dt=""string"">2024-01-30T20:12:53Z</DateUtc></StartTime><FrequencyChanges><FrequencyChange><Frequency dt:dt=""r8"">10000000</Frequency><Timestamp dt:dt=""r8"">9755286003634</Timestamp><Current dt:dt=""r8"">0</Current><DateUtc dt:dt=""string"">2024-01-30T20:12:53Z</DateUtc></FrequencyChange></FrequencyChanges></Clock>\n",2.0.10.252,2.0.10.356,2.0.10.356,Professional,1.0.0.1
Proc2,,List10,,,,,,,699,3,698,698,1618,3,0,,1,,,,,,,,,,,,,,,,,,,,,,,,,,,,,,,,,,,10,1,10,,,,DelayDiscountingTitrated Backup1,01-30-2024,15:12:53,1/30/2024 8:12:53 PM,3084,1,19,DelayDiscountingTitrated Backup1-3084-1,1417306334,1,60.018,"<?xml version=""1.0""?>\n<Clock xmlns:dt=""urn:schemas-microsoft-com:datatypes""><Description dt:dt=""string"">E-Prime Primary Realtime Clock</Description><StartTime><Timestamp dt:dt=""int"">0</Timestamp><DateUtc dt:dt=""string"">2024-01-30T20:12:53Z</DateUtc></StartTime><FrequencyChanges><FrequencyChange><Frequency dt:dt=""r8"">10000000</Frequency><Timestamp dt:dt=""r8"">9755286003634</Timestamp><Current dt:dt=""r8"">0</Current><DateUtc dt:dt=""string"">2024-01-30T20:12:53Z</DateUtc></FrequencyChange></FrequencyChanges></Clock>\n",2.0.10.252,2.0.10.356,2.0.10.356,Professional,1.0.0.1
Proc2,,List10,,,,,,,699,3,698,699,1824,3,0,,,,,,,,,,,,,,,,,,,,,,,,,,,,,,,,,,,,,11,1,11,,,,DelayDiscountingTitrated Backup1,01-30-2024,15:12:53,1/30/2024 8:12:53 PM,3084,1,19,DelayDiscountingTitrated Backup1-3084-1,1417306334,1,60.018,"<?xml version=""1.0""?>\n<Clock xmlns:dt=""urn:schemas-microsoft-com:datatypes""><Description dt:dt=""string"">E-Prime Primary Realtime Clock</Description><StartTime><Timestamp dt:dt=""int"">0</Timestamp><DateUtc dt:dt=""string"">2024-01-30T20:12:53Z</DateUtc></StartTime><FrequencyChanges><FrequencyChange><Frequency dt:dt=""r8"">10000000</Frequency><Timestamp dt:dt=""r8"">9755286003634</Timestamp><Current dt:dt=""r8"">0</Current><DateUtc dt:dt=""string"">2024-01-30T20:12:53Z</DateUtc></FrequencyChange></FrequencyChanges></Clock>\n",2.0.10.252,2.0.10.356,2.0.10.356,Professional,1.0.0.1
discount2,,List5,,,,,,,,,,,,,,,,200,6 month,180,,,,,,,,,,,,,,,,,,,,,,,,,,,,,,,,,,,1,1,1,DelayDiscountingTitrated Backup1,01-30-2024,15:12:53,1/30/2024 8:12:53 PM,3084,1,19,DelayDiscountingTitrated Backup1-3084-1,1417306334,1,60.018,"<?xml version=""1.0""?>\n<Clock xmlns:dt=""urn:schemas-microsoft-com:datatypes""><Description dt:dt=""string"">E-Prime Primary Realtime Clock</Description><StartTime><Timestamp dt:dt=""int"">0</Timestamp><DateUtc dt:dt=""string"">2024-01-30T20:12:53Z</DateUtc></StartTime><FrequencyChanges><FrequencyChange><Frequency dt:dt=""r8"">10000000</Frequency><Timestamp dt:dt=""r8"">9755286003634</Timestamp><Current dt:dt=""r8"">0</Current><DateUtc dt:dt=""string"">2024-01-30T20:12:53Z</DateUtc></FrequencyChange></FrequencyChanges></Clock>\n",2.0.10.252,2.0.10.356,2.0.10.356,Professional,1.0.0.1
sixmthproc,,List1,,,,,,,,,,,,,,,,,,,,,,3,1,6,6,,,,,,,,,,,,,,,,,,,,,,,,,,,,,,,DelayDiscountingTitrated Backup1,01-30-2024,15:12:53,1/30/2024 8:12:53 PM,3084,1,19,DelayDiscountingTitrated Backup1-3084-1,1417306334,1,60.018,"<?xml version=""1.0""?>\n<Clock xmlns:dt=""urn:schemas-microsoft-com:datatypes""><Description dt:dt=""string"">E-Prime Primary Realtime Clock</Description><StartTime><Timestamp dt:dt=""int"">0</Timestamp><DateUtc dt:dt=""string"">2024-01-30T20:12:53Z</DateUtc></StartTime><FrequencyChanges><FrequencyChange><Frequency dt:dt=""r8"">10000000</Frequency><Timestamp dt:dt=""r8"">9755286003634</Timestamp><Current dt:dt=""r8"">0</Current><DateUtc dt:dt=""string"">2024-01-30T20:12:53Z</DateUtc></FrequencyChange></FrequencyChanges></Clock>\n",2.0.10.252,2.0.10.356,2.0.10.356,Professional,1.0.0.1
,,,,,,,,,,,,,,,,,,,,,,,,,,,,,,,,,,,,,,,,,,,,,,,,,,,,,,,,,,DelayDiscountingTitrated Backup1,01-30-2024,15:12:53,1/30/2024 8:12:53 PM,3084,1,19,DelayDiscountingTitrated Backup1-3084-1,1417306334,1,60.018,"<?xml version=""1.0""?>\n<Clock xmlns:dt=""urn:schemas-microsoft-com:datatypes""><Description dt:dt=""string"">E-Prime Primary Realtime Clock</Description><StartTime><Timestamp dt:dt=""int"">0</Timestamp><DateUtc dt:dt=""string"">2024-01-30T20:12:53Z</DateUtc></StartTime><FrequencyChanges><FrequencyChange><Frequency dt:dt=""r8"">10000000</Frequency><Timestamp dt:dt=""r8"">9755286003634</Timestamp><Current dt:dt=""r8"">0</Current><DateUtc dt:dt=""string"">2024-01-30T20:12:53Z</DateUtc></FrequencyChange></FrequencyChanges></Clock>\n",2.0.10.252,2.0.10.356,2.0.10.356,Professional,1.0.0.1
