Procedure,List10,Running,List10.Cycle,List10.Sample,Slide2.DEVICE,Slide2.RT,Slide2.RESP,Slide4.RT,Slide4.RESP,immed3,respprev,prevalue,imstring,Slide1.DEVICE,Slide1.RT,Slide1.RESP,Slide5.RT,Slide5.RESP,immed5,immed,delaypd,timedays,List5,List5.Cycle,List5.Sample,List1,List1.Cycle,List1.Sample,roundnumber,TextDisplay11.DEVICE,List11,List11.Cycle,List11.Sample,List6,List6.Cycle,List6.Sample,List2,List2.Cycle,List2.Sample,List3,List3.Cycle,List3.Sample,List12,List12.Cycle,List12.Sample,List7,List7.Cycle,List7.Sample,List9,List9.Cycle,List9.Sample,List4,List4.Cycle,List4.Sample,List13,List13.Cycle,List13.Sample,List8,List8.Cycle,List8.Sample,Experiment,SessionDate,SessionTime,SessionStartDateTimeUtc,Subject,Session,Age,DataFile.Basename,RandomSeed,Group,Display.RefreshRate,Clock.Information,StudioVersion,RuntimeVersion,RuntimeVersionExpected,RuntimeCapabilities,ExperimentVersion,TextDisplay14.DEVICE,Slide3.DEVICE
Init2,1,List10,1,1,Keyboard,32516,3,0,,600,3,200,,,,,,,,,,,,,,,,,,,,,,,,,,,,,,,,,,,,,,,,,,,,,,,,,DelayDiscountingTitrated,11-19-2024,11:29:09,11/19/2024 4:29:09 PM,2091,1,16,DelayDiscountingTitrated-2091-1,1754936443,1,75.007,"<?xml version=""1.0""?>\n<Clock xmlns:dt=""urn:schemas-microsoft-com:datatypes""><Description dt:dt=""string"">E-Prime Primary Realtime Clock</Description><StartTime><Timestamp dt:dt=""int"">0</Timestamp><DateUtc dt:dt=""string"">2024-11-19T16:29:08Z</DateUtc></StartTime><FrequencyChanges><FrequencyChange><Frequency dt:dt=""r8"">10000000</Frequency><Timestamp dt:dt=""r8"">5215842512641</Timestamp><Current dt:dt=""r8"">0</Current><DateUtc dt:dt=""string"">2024-11-19T16:29:08Z</DateUtc></FrequencyChange></FrequencyChanges></Clock>\n",3.0.3.43,3.0.3.60,3.0.3.60,Full,1.0.0.8,Keyboard,Keyboard
Proc2,2,List10,1,2,,,,,,400,1,600,600,Keyboard,10329,1,0,,200,,,,,,,,,,,,,,,,,,,,,,,,,,,,,,,,,,,,,,,,,,DelayDiscountingTitrated,11-19-2024,11:29:09,11/19/2024 4:29:09 PM,2091,1,16,DelayDiscountingTitrated-2091-1,1754936443,1,75.007,"<?xml version=""1.0""?>\n<Clock xmlns:dt=""urn:schemas-microsoft-com:datatypes""><Description dt:dt=""string"">E-Prime Primary Realtime Clock</Description><StartTime><Timestamp dt:dt=""int"">0</Timestamp><DateUtc dt:dt=""string"">2024-11-19T16:29:08Z</DateUtc></StartTime><FrequencyChanges><FrequencyChange><Frequency dt:dt=""r8"">10000000</Frequency><Timestamp dt:dt=""r8"">5215842512641</Timestamp><Current dt:dt=""r8"">0</Current><DateUtc dt:dt=""string"">2024-11-19T16:29:08Z</DateUtc></FrequencyChange></FrequencyChanges></Clock>\n",3.0.3.43,3.0.3.60,3.0.3.60,Full,1.0.0.8,Keyboard,Keyboard
Proc2,3,List10,1,3,,,,,,300,1,400,400,Keyboard,2968,1,0,,100,,,,,,,,,,,,,,,,,,,,,,,,,,,,,,,,,,,,,,,,,,DelayDiscountingTitrated,11-19-2024,11:29:09,11/19/2024 4:29:09 PM,2091,1,16,DelayDiscountingTitrated-2091-1,1754936443,1,75.007,"<?xml version=""1.0""?>\n<Clock xmlns:dt=""urn:schemas-microsoft-com:datatypes""><Description dt:dt=""string"">E-Prime Primary Realtime Clock</Description><StartTime><Timestamp dt:dt=""int"">0</Timestamp><DateUtc dt:dt=""string"">2024-11-19T16:29:08Z</DateUtc></StartTime><FrequencyChanges><FrequencyChange><Frequency dt:dt=""r8"">10000000</Frequency><Timestamp dt:dt=""r8"">5215842512641</Timestamp><Current dt:dt=""r8"">0</Current><DateUtc dt:dt=""string"">2024-11-19T16:29:08Z</DateUtc></FrequencyChange></FrequencyChanges></Clock>\n",3.0.3.43,3.0.3.60,3.0.3.60,Full,1.0.0.8,Keyboard,Keyboard
Proc2,4,List10,1,4,,,,,,350,3,300,300,Keyboard,1585,3,0,,50,,,,,,,,,,,,,,,,,,,,,,,,,,,,,,,,,,,,,,,,,,DelayDiscountingTitrated,11-19-2024,11:29:09,11/19/2024 4:29:09 PM,2091,1,16,DelayDiscountingTitrated-2091-1,1754936443,1,75.007,"<?xml version=""1.0""?>\n<Clock xmlns:dt=""urn:schemas-microsoft-com:datatypes""><Description dt:dt=""string"">E-Prime Primary Realtime Clock</Description><StartTime><Timestamp dt:dt=""int"">0</Timestamp><DateUtc dt:dt=""string"">2024-11-19T16:29:08Z</DateUtc></StartTime><FrequencyChanges><FrequencyChange><Frequency dt:dt=""r8"">10000000</Frequency><Timestamp dt:dt=""r8"">5215842512641</Timestamp><Current dt:dt=""r8"">0</Current><DateUtc dt:dt=""string"">2024-11-19T16:29:08Z</DateUtc></FrequencyChange></FrequencyChanges></Clock>\n",3.0.3.43,3.0.3.60,3.0.3.60,Full,1.0.0.8,Keyboard,Keyboard
Proc2,5,List10,1,5,,,,,,325,1,350,350,Keyboard,2924,1,0,,25,,,,,,,,,,,,,,,,,,,,,,,,,,,,,,,,,,,,,,,,,,DelayDiscountingTitrated,11-19-2024,11:29:09,11/19/2024 4:29:09 PM,2091,1,16,DelayDiscountingTitrated-2091-1,1754936443,1,75.007,"<?xml version=""1.0""?>\n<Clock xmlns:dt=""urn:schemas-microsoft-com:datatypes""><Description dt:dt=""string"">E-Prime Primary Realtime Clock</Description><StartTime><Timestamp dt:dt=""int"">0</Timestamp><DateUtc dt:dt=""string"">2024-11-19T16:29:08Z</DateUtc></StartTime><FrequencyChanges><FrequencyChange><Frequency dt:dt=""r8"">10000000</Frequency><Timestamp dt:dt=""r8"">5215842512641</Timestamp><Current dt:dt=""r8"">0</Current><DateUtc dt:dt=""string"">2024-11-19T16:29:08Z</DateUtc></FrequencyChange></FrequencyChanges></Clock>\n",3.0.3.43,3.0.3.60,3.0.3.60,Full,1.0.0.8,Keyboard,Keyboard
Proc2,6,List10,1,6,,,,,,313,1,325,325,Keyboard,3386,1,0,,12,,,,,,,,,,,,,,,,,,,,,,,,,,,,,,,,,,,,,,,,,,DelayDiscountingTitrated,11-19-2024,11:29:09,11/19/2024 4:29:09 PM,2091,1,16,DelayDiscountingTitrated-2091-1,1754936443,1,75.007,"<?xml version=""1.0""?>\n<Clock xmlns:dt=""urn:schemas-microsoft-com:datatypes""><Description dt:dt=""string"">E-Prime Primary Realtime Clock</Description><StartTime><Timestamp dt:dt=""int"">0</Timestamp><DateUtc dt:dt=""string"">2024-11-19T16:29:08Z</DateUtc></StartTime><FrequencyChanges><FrequencyChange><Frequency dt:dt=""r8"">10000000</Frequency><Timestamp dt:dt=""r8"">5215842512641</Timestamp><Current dt:dt=""r8"">0</Current><DateUtc dt:dt=""string"">2024-11-19T16:29:08Z</DateUtc></FrequencyChange></FrequencyChanges></Clock>\n",3.0.3.43,3.0.3.60,3.0.3.60,Full,1.0.0.8,Keyboard,Keyboard
Proc2,7,List10,1,7,,,,,,319,3,313,313,Keyboard,2549,3,0,,6,,,,,,,,,,,,,,,,,,,,,,,,,,,,,,,,,,,,,,,,,,DelayDiscountingTitrated,11-19-2024,11:29:09,11/19/2024 4:29:09 PM,2091,1,16,DelayDiscountingTitrated-2091-1,1754936443,1,75.007,"<?xml version=""1.0""?>\n<Clock xmlns:dt=""urn:schemas-microsoft-com:datatypes""><Description dt:dt=""string"">E-Prime Primary Realtime Clock</Description><StartTime><Timestamp dt:dt=""int"">0</Timestamp><DateUtc dt:dt=""string"">2024-11-19T16:29:08Z</DateUtc></StartTime><FrequencyChanges><FrequencyChange><Frequency dt:dt=""r8"">10000000</Frequency><Timestamp dt:dt=""r8"">5215842512641</Timestamp><Current dt:dt=""r8"">0</Current><DateUtc dt:dt=""string"">2024-11-19T16:29:08Z</DateUtc></FrequencyChange></FrequencyChanges></Clock>\n",3.0.3.43,3.0.3.60,3.0.3.60,Full,1.0.0.8,Keyboard,Keyboard
Proc2,8,List10,1,8,,,,,,322,3,319,319,Keyboard,2448,3,0,,3,,,,,,,,,,,,,,,,,,,,,,,,,,,,,,,,,,,,,,,,,,DelayDiscountingTitrated,11-19-2024,11:29:09,11/19/2024 4:29:09 PM,2091,1,16,DelayDiscountingTitrated-2091-1,1754936443,1,75.007,"<?xml version=""1.0""?>\n<Clock xmlns:dt=""urn:schemas-microsoft-com:datatypes""><Description dt:dt=""string"">E-Prime Primary Realtime Clock</Description><StartTime><Timestamp dt:dt=""int"">0</Timestamp><DateUtc dt:dt=""string"">2024-11-19T16:29:08Z</DateUtc></StartTime><FrequencyChanges><FrequencyChange><Frequency dt:dt=""r8"">10000000</Frequency><Timestamp dt:dt=""r8"">5215842512641</Timestamp><Current dt:dt=""r8"">0</Current><DateUtc dt:dt=""string"">2024-11-19T16:29:08Z</DateUtc></FrequencyChange></FrequencyChanges></Clock>\n",3.0.3.43,3.0.3.60,3.0.3.60,Full,1.0.0.8,Keyboard,Keyboard
Proc2,9,List10,1,9,,,,,,324,3,322,322,Keyboard,2204,3,0,,2,,,,,,,,,,,,,,,,,,,,,,,,,,,,,,,,,,,,,,,,,,DelayDiscountingTitrated,11-19-2024,11:29:09,11/19/2024 4:29:09 PM,2091,1,16,DelayDiscountingTitrated-2091-1,1754936443,1,75.007,"<?xml version=""1.0""?>\n<Clock xmlns:dt=""urn:schemas-microsoft-com:datatypes""><Description dt:dt=""string"">E-Prime Primary Realtime Clock</Description><StartTime><Timestamp dt:dt=""int"">0</Timestamp><DateUtc dt:dt=""string"">2024-11-19T16:29:08Z</DateUtc></StartTime><FrequencyChanges><FrequencyChange><Frequency dt:dt=""r8"">10000000</Frequency><Timestamp dt:dt=""r8"">5215842512641</Timestamp><Current dt:dt=""r8"">0</Current><DateUtc dt:dt=""string"">2024-11-19T16:29:08Z</DateUtc></FrequencyChange></FrequencyChanges></Clock>\n",3.0.3.43,3.0.3.60,3.0.3.60,Full,1.0.0.8,Keyboard,Keyboard
Proc2,10,List10,1,10,,,,,,325,3,324,324,Keyboard,936,3,0,,1,,,,,,,,,,,,,,,,,,,,,,,,,,,,,,,,,,,,,,,,,,DelayDiscountingTitrated,11-19-2024,11:29:09,11/19/2024 4:29:09 PM,2091,1,16,DelayDiscountingTitrated-2091-1,1754936443,1,75.007,"<?xml version=""1.0""?>\n<Clock xmlns:dt=""urn:schemas-microsoft-com:datatypes""><Description dt:dt=""string"">E-Prime Primary Realtime Clock</Description><StartTime><Timestamp dt:dt=""int"">0</Timestamp><DateUtc dt:dt=""string"">2024-11-19T16:29:08Z</DateUtc></StartTime><FrequencyChanges><FrequencyChange><Frequency dt:dt=""r8"">10000000</Frequency><Timestamp dt:dt=""r8"">5215842512641</Timestamp><Current dt:dt=""r8"">0</Current><DateUtc dt:dt=""string"">2024-11-19T16:29:08Z</DateUtc></FrequencyChange></FrequencyChanges></Clock>\n",3.0.3.43,3.0.3.60,3.0.3.60,Full,1.0.0.8,Keyboard,Keyboard
Proc2,11,List10,1,11,,,,,,325,3,324,325,Keyboard,1222,3,0,,,,,,,,,,,,,,,,,,,,,,,,,,,,,,,,,,,,,,,,,,,,DelayDiscountingTitrated,11-19-2024,11:29:09,11/19/2024 4:29:09 PM,2091,1,16,DelayDiscountingTitrated-2091-1,1754936443,1,75.007,"<?xml version=""1.0""?>\n<Clock xmlns:dt=""urn:schemas-microsoft-com:datatypes""><Description dt:dt=""string"">E-Prime Primary Realtime Clock</Description><StartTime><Timestamp dt:dt=""int"">0</Timestamp><DateUtc dt:dt=""string"">2024-11-19T16:29:08Z</DateUtc></StartTime><FrequencyChanges><FrequencyChange><Frequency dt:dt=""r8"">10000000</Frequency><Timestamp dt:dt=""r8"">5215842512641</Timestamp><Current dt:dt=""r8"">0</Current><DateUtc dt:dt=""string"">2024-11-19T16:29:08Z</DateUtc></FrequencyChange></FrequencyChanges></Clock>\n",3.0.3.43,3.0.3.60,3.0.3.60,Full,1.0.0.8,Keyboard,Keyboard
discount2,,List5,,,,,,,,,,,,,,,,,,200,6 month,180,1,1,1,,,,,,,,,,,,,,,,,,,,,,,,,,,,,,,,,,,,DelayDiscountingTitrated,11-19-2024,11:29:09,11/19/2024 4:29:09 PM,2091,1,16,DelayDiscountingTitrated-2091-1,1754936443,1,75.007,"<?xml version=""1.0""?>\n<Clock xmlns:dt=""urn:schemas-microsoft-com:datatypes""><Description dt:dt=""string"">E-Prime Primary Realtime Clock</Description><StartTime><Timestamp dt:dt=""int"">0</Timestamp><DateUtc dt:dt=""string"">2024-11-19T16:29:08Z</DateUtc></StartTime><FrequencyChanges><FrequencyChange><Frequency dt:dt=""r8"">10000000</Frequency><Timestamp dt:dt=""r8"">5215842512641</Timestamp><Current dt:dt=""r8"">0</Current><DateUtc dt:dt=""string"">2024-11-19T16:29:08Z</DateUtc></FrequencyChange></FrequencyChanges></Clock>\n",3.0.3.43,3.0.3.60,3.0.3.60,Full,1.0.0.8,Keyboard,Keyboard
sixmthproc,,List1,,,,,,,,,,,,,,,,,,,,,,,,3,1,1,1,Keyboard,,,,,,,,,,,,,,,,,,,,,,,,,,,,,,,DelayDiscountingTitrated,11-19-2024,11:29:09,11/19/2024 4:29:09 PM,2091,1,16,DelayDiscountingTitrated-2091-1,1754936443,1,75.007,"<?xml version=""1.0""?>\n<Clock xmlns:dt=""urn:schemas-microsoft-com:datatypes""><Description dt:dt=""string"">E-Prime Primary Realtime Clock</Description><StartTime><Timestamp dt:dt=""int"">0</Timestamp><DateUtc dt:dt=""string"">2024-11-19T16:29:08Z</DateUtc></StartTime><FrequencyChanges><FrequencyChange><Frequency dt:dt=""r8"">10000000</Frequency><Timestamp dt:dt=""r8"">5215842512641</Timestamp><Current dt:dt=""r8"">0</Current><DateUtc dt:dt=""string"">2024-11-19T16:29:08Z</DateUtc></FrequencyChange></FrequencyChanges></Clock>\n",3.0.3.43,3.0.3.60,3.0.3.60,Full,1.0.0.8,Keyboard,Keyboard
Init3,,List11,,,Keyboard,3833,1,0,,250,1,500,,,,,,,,,,,,,,,,,,,1,1,1,,,,,,,,,,,,,,,,,,,,,,,,,,,,DelayDiscountingTitrated,11-19-2024,11:29:09,11/19/2024 4:29:09 PM,2091,1,16,DelayDiscountingTitrated-2091-1,1754936443,1,75.007,"<?xml version=""1.0""?>\n<Clock xmlns:dt=""urn:schemas-microsoft-com:datatypes""><Description dt:dt=""string"">E-Prime Primary Realtime Clock</Description><StartTime><Timestamp dt:dt=""int"">0</Timestamp><DateUtc dt:dt=""string"">2024-11-19T16:29:08Z</DateUtc></StartTime><FrequencyChanges><FrequencyChange><Frequency dt:dt=""r8"">10000000</Frequency><Timestamp dt:dt=""r8"">5215842512641</Timestamp><Current dt:dt=""r8"">0</Current><DateUtc dt:dt=""string"">2024-11-19T16:29:08Z</DateUtc></FrequencyChange></FrequencyChanges></Clock>\n",3.0.3.43,3.0.3.60,3.0.3.60,Full,1.0.0.8,Keyboard,Keyboard
Proc3,,List11,,,,,,,,125,1,250,250,Keyboard,3821,1,0,,125,,,,,,,,,,,,2,1,2,,,,,,,,,,,,,,,,,,,,,,,,,,,,DelayDiscountingTitrated,11-19-2024,11:29:09,11/19/2024 4:29:09 PM,2091,1,16,DelayDiscountingTitrated-2091-1,1754936443,1,75.007,"<?xml version=""1.0""?>\n<Clock xmlns:dt=""urn:schemas-microsoft-com:datatypes""><Description dt:dt=""string"">E-Prime Primary Realtime Clock</Description><StartTime><Timestamp dt:dt=""int"">0</Timestamp><DateUtc dt:dt=""string"">2024-11-19T16:29:08Z</DateUtc></StartTime><FrequencyChanges><FrequencyChange><Frequency dt:dt=""r8"">10000000</Frequency><Timestamp dt:dt=""r8"">5215842512641</Timestamp><Current dt:dt=""r8"">0</Current><DateUtc dt:dt=""string"">2024-11-19T16:29:08Z</DateUtc></FrequencyChange></FrequencyChanges></Clock>\n",3.0.3.43,3.0.3.60,3.0.3.60,Full,1.0.0.8,Keyboard,Keyboard
Proc3,,List11,,,,,,,,63,1,125,125,Keyboard,2240,1,0,,62,,,,,,,,,,,,3,1,3,,,,,,,,,,,,,,,,,,,,,,,,,,,,DelayDiscountingTitrated,11-19-2024,11:29:09,11/19/2024 4:29:09 PM,2091,1,16,DelayDiscountingTitrated-2091-1,1754936443,1,75.007,"<?xml version=""1.0""?>\n<Clock xmlns:dt=""urn:schemas-microsoft-com:datatypes""><Description dt:dt=""string"">E-Prime Primary Realtime Clock</Description><StartTime><Timestamp dt:dt=""int"">0</Timestamp><DateUtc dt:dt=""string"">2024-11-19T16:29:08Z</DateUtc></StartTime><FrequencyChanges><FrequencyChange><Frequency dt:dt=""r8"">10000000</Frequency><Timestamp dt:dt=""r8"">5215842512641</Timestamp><Current dt:dt=""r8"">0</Current><DateUtc dt:dt=""string"">2024-11-19T16:29:08Z</DateUtc></FrequencyChange></FrequencyChanges></Clock>\n",3.0.3.43,3.0.3.60,3.0.3.60,Full,1.0.0.8,Keyboard,Keyboard
Proc3,,List11,,,,,,,,94,3,63,63,Keyboard,863,3,0,,31,,,,,,,,,,,,4,1,4,,,,,,,,,,,,,,,,,,,,,,,,,,,,DelayDiscountingTitrated,11-19-2024,11:29:09,11/19/2024 4:29:09 PM,2091,1,16,DelayDiscountingTitrated-2091-1,1754936443,1,75.007,"<?xml version=""1.0""?>\n<Clock xmlns:dt=""urn:schemas-microsoft-com:datatypes""><Description dt:dt=""string"">E-Prime Primary Realtime Clock</Description><StartTime><Timestamp dt:dt=""int"">0</Timestamp><DateUtc dt:dt=""string"">2024-11-19T16:29:08Z</DateUtc></StartTime><FrequencyChanges><FrequencyChange><Frequency dt:dt=""r8"">10000000</Frequency><Timestamp dt:dt=""r8"">5215842512641</Timestamp><Current dt:dt=""r8"">0</Current><DateUtc dt:dt=""string"">2024-11-19T16:29:08Z</DateUtc></FrequencyChange></FrequencyChanges></Clock>\n",3.0.3.43,3.0.3.60,3.0.3.60,Full,1.0.0.8,Keyboard,Keyboard
Proc3,,List11,,,,,,,,110,3,94,94,Keyboard,1639,3,0,,16,,,,,,,,,,,,5,1,5,,,,,,,,,,,,,,,,,,,,,,,,,,,,DelayDiscountingTitrated,11-19-2024,11:29:09,11/19/2024 4:29:09 PM,2091,1,16,DelayDiscountingTitrated-2091-1,1754936443,1,75.007,"<?xml version=""1.0""?>\n<Clock xmlns:dt=""urn:schemas-microsoft-com:datatypes""><Description dt:dt=""string"">E-Prime Primary Realtime Clock</Description><StartTime><Timestamp dt:dt=""int"">0</Timestamp><DateUtc dt:dt=""string"">2024-11-19T16:29:08Z</DateUtc></StartTime><FrequencyChanges><FrequencyChange><Frequency dt:dt=""r8"">10000000</Frequency><Timestamp dt:dt=""r8"">5215842512641</Timestamp><Current dt:dt=""r8"">0</Current><DateUtc dt:dt=""string"">2024-11-19T16:29:08Z</DateUtc></FrequencyChange></FrequencyChanges></Clock>\n",3.0.3.43,3.0.3.60,3.0.3.60,Full,1.0.0.8,Keyboard,Keyboard
Proc3,,List11,,,,,,,,102,1,110,110,Keyboard,807,1,0,,8,,,,,,,,,,,,6,1,6,,,,,,,,,,,,,,,,,,,,,,,,,,,,DelayDiscountingTitrated,11-19-2024,11:29:09,11/19/2024 4:29:09 PM,2091,1,16,DelayDiscountingTitrated-2091-1,1754936443,1,75.007,"<?xml version=""1.0""?>\n<Clock xmlns:dt=""urn:schemas-microsoft-com:datatypes""><Description dt:dt=""string"">E-Prime Primary Realtime Clock</Description><StartTime><Timestamp dt:dt=""int"">0</Timestamp><DateUtc dt:dt=""string"">2024-11-19T16:29:08Z</DateUtc></StartTime><FrequencyChanges><FrequencyChange><Frequency dt:dt=""r8"">10000000</Frequency><Timestamp dt:dt=""r8"">5215842512641</Timestamp><Current dt:dt=""r8"">0</Current><DateUtc dt:dt=""string"">2024-11-19T16:29:08Z</DateUtc></FrequencyChange></FrequencyChanges></Clock>\n",3.0.3.43,3.0.3.60,3.0.3.60,Full,1.0.0.8,Keyboard,Keyboard
Proc3,,List11,,,,,,,,98,1,102,102,Keyboard,1185,1,0,,4,,,,,,,,,,,,7,1,7,,,,,,,,,,,,,,,,,,,,,,,,,,,,DelayDiscountingTitrated,11-19-2024,11:29:09,11/19/2024 4:29:09 PM,2091,1,16,DelayDiscountingTitrated-2091-1,1754936443,1,75.007,"<?xml version=""1.0""?>\n<Clock xmlns:dt=""urn:schemas-microsoft-com:datatypes""><Description dt:dt=""string"">E-Prime Primary Realtime Clock</Description><StartTime><Timestamp dt:dt=""int"">0</Timestamp><DateUtc dt:dt=""string"">2024-11-19T16:29:08Z</DateUtc></StartTime><FrequencyChanges><FrequencyChange><Frequency dt:dt=""r8"">10000000</Frequency><Timestamp dt:dt=""r8"">5215842512641</Timestamp><Current dt:dt=""r8"">0</Current><DateUtc dt:dt=""string"">2024-11-19T16:29:08Z</DateUtc></FrequencyChange></FrequencyChanges></Clock>\n",3.0.3.43,3.0.3.60,3.0.3.60,Full,1.0.0.8,Keyboard,Keyboard
Proc3,,List11,,,,,,,,100,3,98,98,Keyboard,731,3,0,,2,,,,,,,,,,,,8,1,8,,,,,,,,,,,,,,,,,,,,,,,,,,,,DelayDiscountingTitrated,11-19-2024,11:29:09,11/19/2024 4:29:09 PM,2091,1,16,DelayDiscountingTitrated-2091-1,1754936443,1,75.007,"<?xml version=""1.0""?>\n<Clock xmlns:dt=""urn:schemas-microsoft-com:datatypes""><Description dt:dt=""string"">E-Prime Primary Realtime Clock</Description><StartTime><Timestamp dt:dt=""int"">0</Timestamp><DateUtc dt:dt=""string"">2024-11-19T16:29:08Z</DateUtc></StartTime><FrequencyChanges><FrequencyChange><Frequency dt:dt=""r8"">10000000</Frequency><Timestamp dt:dt=""r8"">5215842512641</Timestamp><Current dt:dt=""r8"">0</Current><DateUtc dt:dt=""string"">2024-11-19T16:29:08Z</DateUtc></FrequencyChange></FrequencyChanges></Clock>\n",3.0.3.43,3.0.3.60,3.0.3.60,Full,1.0.0.8,Keyboard,Keyboard
Proc3,,List11,,,,,,,,101,3,100,100,Keyboard,3816,3,0,,1,,,,,,,,,,,,9,1,9,,,,,,,,,,,,,,,,,,,,,,,,,,,,DelayDiscountingTitrated,11-19-2024,11:29:09,11/19/2024 4:29:09 PM,2091,1,16,DelayDiscountingTitrated-2091-1,1754936443,1,75.007,"<?xml version=""1.0""?>\n<Clock xmlns:dt=""urn:schemas-microsoft-com:datatypes""><Description dt:dt=""string"">E-Prime Primary Realtime Clock</Description><StartTime><Timestamp dt:dt=""int"">0</Timestamp><DateUtc dt:dt=""string"">2024-11-19T16:29:08Z</DateUtc></StartTime><FrequencyChanges><FrequencyChange><Frequency dt:dt=""r8"">10000000</Frequency><Timestamp dt:dt=""r8"">5215842512641</Timestamp><Current dt:dt=""r8"">0</Current><DateUtc dt:dt=""string"">2024-11-19T16:29:08Z</DateUtc></FrequencyChange></FrequencyChanges></Clock>\n",3.0.3.43,3.0.3.60,3.0.3.60,Full,1.0.0.8,Keyboard,Keyboard
Proc3,,List11,,,,,,,,101,3,100,101,Keyboard,2125,3,0,,,,,,,,,,,,,,10,1,10,,,,,,,,,,,,,,,,,,,,,,,,,,,,DelayDiscountingTitrated,11-19-2024,11:29:09,11/19/2024 4:29:09 PM,2091,1,16,DelayDiscountingTitrated-2091-1,1754936443,1,75.007,"<?xml version=""1.0""?>\n<Clock xmlns:dt=""urn:schemas-microsoft-com:datatypes""><Description dt:dt=""string"">E-Prime Primary Realtime Clock</Description><StartTime><Timestamp dt:dt=""int"">0</Timestamp><DateUtc dt:dt=""string"">2024-11-19T16:29:08Z</DateUtc></StartTime><FrequencyChanges><FrequencyChange><Frequency dt:dt=""r8"">10000000</Frequency><Timestamp dt:dt=""r8"">5215842512641</Timestamp><Current dt:dt=""r8"">0</Current><DateUtc dt:dt=""string"">2024-11-19T16:29:08Z</DateUtc></FrequencyChange></FrequencyChanges></Clock>\n",3.0.3.43,3.0.3.60,3.0.3.60,Full,1.0.0.8,Keyboard,Keyboard
discount3,,List6,,,,,,,,,,,,,,,,,,500,1 year,365,,,,,,,,,,,,2,1,1,,,,,,,,,,,,,,,,,,,,,,,,,DelayDiscountingTitrated,11-19-2024,11:29:09,11/19/2024 4:29:09 PM,2091,1,16,DelayDiscountingTitrated-2091-1,1754936443,1,75.007,"<?xml version=""1.0""?>\n<Clock xmlns:dt=""urn:schemas-microsoft-com:datatypes""><Description dt:dt=""string"">E-Prime Primary Realtime Clock</Description><StartTime><Timestamp dt:dt=""int"">0</Timestamp><DateUtc dt:dt=""string"">2024-11-19T16:29:08Z</DateUtc></StartTime><FrequencyChanges><FrequencyChange><Frequency dt:dt=""r8"">10000000</Frequency><Timestamp dt:dt=""r8"">5215842512641</Timestamp><Current dt:dt=""r8"">0</Current><DateUtc dt:dt=""string"">2024-11-19T16:29:08Z</DateUtc></FrequencyChange></FrequencyChanges></Clock>\n",3.0.3.43,3.0.3.60,3.0.3.60,Full,1.0.0.8,Keyboard,Keyboard
oneyearproc,,List1,,,,,,,,,,,,,,,,,,,,,,,,4,1,2,2,Keyboard,,,,,,,,,,,,,,,,,,,,,,,,,,,,,,,DelayDiscountingTitrated,11-19-2024,11:29:09,11/19/2024 4:29:09 PM,2091,1,16,DelayDiscountingTitrated-2091-1,1754936443,1,75.007,"<?xml version=""1.0""?>\n<Clock xmlns:dt=""urn:schemas-microsoft-com:datatypes""><Description dt:dt=""string"">E-Prime Primary Realtime Clock</Description><StartTime><Timestamp dt:dt=""int"">0</Timestamp><DateUtc dt:dt=""string"">2024-11-19T16:29:08Z</DateUtc></StartTime><FrequencyChanges><FrequencyChange><Frequency dt:dt=""r8"">10000000</Frequency><Timestamp dt:dt=""r8"">5215842512641</Timestamp><Current dt:dt=""r8"">0</Current><DateUtc dt:dt=""string"">2024-11-19T16:29:08Z</DateUtc></FrequencyChange></FrequencyChanges></Clock>\n",3.0.3.43,3.0.3.60,3.0.3.60,Full,1.0.0.8,Keyboard,Keyboard
TrialProcInit,,List2,,,Keyboard,2708,3,0,,750,3,500,,,,,,,,,,,,,,,,,,,,,,,,,1,1,1,,,,,,,,,,,,,,,,,,,,,,DelayDiscountingTitrated,11-19-2024,11:29:09,11/19/2024 4:29:09 PM,2091,1,16,DelayDiscountingTitrated-2091-1,1754936443,1,75.007,"<?xml version=""1.0""?>\n<Clock xmlns:dt=""urn:schemas-microsoft-com:datatypes""><Description dt:dt=""string"">E-Prime Primary Realtime Clock</Description><StartTime><Timestamp dt:dt=""int"">0</Timestamp><DateUtc dt:dt=""string"">2024-11-19T16:29:08Z</DateUtc></StartTime><FrequencyChanges><FrequencyChange><Frequency dt:dt=""r8"">10000000</Frequency><Timestamp dt:dt=""r8"">5215842512641</Timestamp><Current dt:dt=""r8"">0</Current><DateUtc dt:dt=""string"">2024-11-19T16:29:08Z</DateUtc></FrequencyChange></FrequencyChanges></Clock>\n",3.0.3.43,3.0.3.60,3.0.3.60,Full,1.0.0.8,Keyboard,Keyboard
TrialProc,,List2,,,,,,,,875,3,750,750,Keyboard,1138,3,0,,125,,,,,,,,,,,,,,,,,,2,1,2,,,,,,,,,,,,,,,,,,,,,,DelayDiscountingTitrated,11-19-2024,11:29:09,11/19/2024 4:29:09 PM,2091,1,16,DelayDiscountingTitrated-2091-1,1754936443,1,75.007,"<?xml version=""1.0""?>\n<Clock xmlns:dt=""urn:schemas-microsoft-com:datatypes""><Description dt:dt=""string"">E-Prime Primary Realtime Clock</Description><StartTime><Timestamp dt:dt=""int"">0</Timestamp><DateUtc dt:dt=""string"">2024-11-19T16:29:08Z</DateUtc></StartTime><FrequencyChanges><FrequencyChange><Frequency dt:dt=""r8"">10000000</Frequency><Timestamp dt:dt=""r8"">5215842512641</Timestamp><Current dt:dt=""r8"">0</Current><DateUtc dt:dt=""string"">2024-11-19T16:29:08Z</DateUtc></FrequencyChange></FrequencyChanges></Clock>\n",3.0.3.43,3.0.3.60,3.0.3.60,Full,1.0.0.8,Keyboard,Keyboard
TrialProc,,List2,,,,,,,,937,3,875,875,Keyboard,710,3,0,,62,,,,,,,,,,,,,,,,,,3,1,3,,,,,,,,,,,,,,,,,,,,,,DelayDiscountingTitrated,11-19-2024,11:29:09,11/19/2024 4:29:09 PM,2091,1,16,DelayDiscountingTitrated-2091-1,1754936443,1,75.007,"<?xml version=""1.0""?>\n<Clock xmlns:dt=""urn:schemas-microsoft-com:datatypes""><Description dt:dt=""string"">E-Prime Primary Realtime Clock</Description><StartTime><Timestamp dt:dt=""int"">0</Timestamp><DateUtc dt:dt=""string"">2024-11-19T16:29:08Z</DateUtc></StartTime><FrequencyChanges><FrequencyChange><Frequency dt:dt=""r8"">10000000</Frequency><Timestamp dt:dt=""r8"">5215842512641</Timestamp><Current dt:dt=""r8"">0</Current><DateUtc dt:dt=""string"">2024-11-19T16:29:08Z</DateUtc></FrequencyChange></FrequencyChanges></Clock>\n",3.0.3.43,3.0.3.60,3.0.3.60,Full,1.0.0.8,Keyboard,Keyboard
TrialProc,,List2,,,,,,,,969,3,937,937,Keyboard,604,3,0,,32,,,,,,,,,,,,,,,,,,4,1,4,,,,,,,,,,,,,,,,,,,,,,DelayDiscountingTitrated,11-19-2024,11:29:09,11/19/2024 4:29:09 PM,2091,1,16,DelayDiscountingTitrated-2091-1,1754936443,1,75.007,"<?xml version=""1.0""?>\n<Clock xmlns:dt=""urn:schemas-microsoft-com:datatypes""><Description dt:dt=""string"">E-Prime Primary Realtime Clock</Description><StartTime><Timestamp dt:dt=""int"">0</Timestamp><DateUtc dt:dt=""string"">2024-11-19T16:29:08Z</DateUtc></StartTime><FrequencyChanges><FrequencyChange><Frequency dt:dt=""r8"">10000000</Frequency><Timestamp dt:dt=""r8"">5215842512641</Timestamp><Current dt:dt=""r8"">0</Current><DateUtc dt:dt=""string"">2024-11-19T16:29:08Z</DateUtc></FrequencyChange></FrequencyChanges></Clock>\n",3.0.3.43,3.0.3.60,3.0.3.60,Full,1.0.0.8,Keyboard,Keyboard
TrialProc,,List2,,,,,,,,985,3,969,969,Keyboard,2598,3,0,,16,,,,,,,,,,,,,,,,,,5,1,5,,,,,,,,,,,,,,,,,,,,,,DelayDiscountingTitrated,11-19-2024,11:29:09,11/19/2024 4:29:09 PM,2091,1,16,DelayDiscountingTitrated-2091-1,1754936443,1,75.007,"<?xml version=""1.0""?>\n<Clock xmlns:dt=""urn:schemas-microsoft-com:datatypes""><Description dt:dt=""string"">E-Prime Primary Realtime Clock</Description><StartTime><Timestamp dt:dt=""int"">0</Timestamp><DateUtc dt:dt=""string"">2024-11-19T16:29:08Z</DateUtc></StartTime><FrequencyChanges><FrequencyChange><Frequency dt:dt=""r8"">10000000</Frequency><Timestamp dt:dt=""r8"">5215842512641</Timestamp><Current dt:dt=""r8"">0</Current><DateUtc dt:dt=""string"">2024-11-19T16:29:08Z</DateUtc></FrequencyChange></FrequencyChanges></Clock>\n",3.0.3.43,3.0.3.60,3.0.3.60,Full,1.0.0.8,Keyboard,Keyboard
TrialProc,,List2,,,,,,,,977,1,985,985,Keyboard,497,1,0,,8,,,,,,,,,,,,,,,,,,6,1,6,,,,,,,,,,,,,,,,,,,,,,DelayDiscountingTitrated,11-19-2024,11:29:09,11/19/2024 4:29:09 PM,2091,1,16,DelayDiscountingTitrated-2091-1,1754936443,1,75.007,"<?xml version=""1.0""?>\n<Clock xmlns:dt=""urn:schemas-microsoft-com:datatypes""><Description dt:dt=""string"">E-Prime Primary Realtime Clock</Description><StartTime><Timestamp dt:dt=""int"">0</Timestamp><DateUtc dt:dt=""string"">2024-11-19T16:29:08Z</DateUtc></StartTime><FrequencyChanges><FrequencyChange><Frequency dt:dt=""r8"">10000000</Frequency><Timestamp dt:dt=""r8"">5215842512641</Timestamp><Current dt:dt=""r8"">0</Current><DateUtc dt:dt=""string"">2024-11-19T16:29:08Z</DateUtc></FrequencyChange></FrequencyChanges></Clock>\n",3.0.3.43,3.0.3.60,3.0.3.60,Full,1.0.0.8,Keyboard,Keyboard
TrialProc,,List2,,,,,,,,973,1,977,977,Keyboard,873,1,0,,4,,,,,,,,,,,,,,,,,,7,1,7,,,,,,,,,,,,,,,,,,,,,,DelayDiscountingTitrated,11-19-2024,11:29:09,11/19/2024 4:29:09 PM,2091,1,16,DelayDiscountingTitrated-2091-1,1754936443,1,75.007,"<?xml version=""1.0""?>\n<Clock xmlns:dt=""urn:schemas-microsoft-com:datatypes""><Description dt:dt=""string"">E-Prime Primary Realtime Clock</Description><StartTime><Timestamp dt:dt=""int"">0</Timestamp><DateUtc dt:dt=""string"">2024-11-19T16:29:08Z</DateUtc></StartTime><FrequencyChanges><FrequencyChange><Frequency dt:dt=""r8"">10000000</Frequency><Timestamp dt:dt=""r8"">5215842512641</Timestamp><Current dt:dt=""r8"">0</Current><DateUtc dt:dt=""string"">2024-11-19T16:29:08Z</DateUtc></FrequencyChange></FrequencyChanges></Clock>\n",3.0.3.43,3.0.3.60,3.0.3.60,Full,1.0.0.8,Keyboard,Keyboard
TrialProc,,List2,,,,,,,,975,3,973,973,Keyboard,2325,3,0,,2,,,,,,,,,,,,,,,,,,8,1,8,,,,,,,,,,,,,,,,,,,,,,DelayDiscountingTitrated,11-19-2024,11:29:09,11/19/2024 4:29:09 PM,2091,1,16,DelayDiscountingTitrated-2091-1,1754936443,1,75.007,"<?xml version=""1.0""?>\n<Clock xmlns:dt=""urn:schemas-microsoft-com:datatypes""><Description dt:dt=""string"">E-Prime Primary Realtime Clock</Description><StartTime><Timestamp dt:dt=""int"">0</Timestamp><DateUtc dt:dt=""string"">2024-11-19T16:29:08Z</DateUtc></StartTime><FrequencyChanges><FrequencyChange><Frequency dt:dt=""r8"">10000000</Frequency><Timestamp dt:dt=""r8"">5215842512641</Timestamp><Current dt:dt=""r8"">0</Current><DateUtc dt:dt=""string"">2024-11-19T16:29:08Z</DateUtc></FrequencyChange></FrequencyChanges></Clock>\n",3.0.3.43,3.0.3.60,3.0.3.60,Full,1.0.0.8,Keyboard,Keyboard
TrialProc,,List2,,,,,,,,974,1,975,975,Keyboard,866,1,0,,1,,,,,,,,,,,,,,,,,,9,1,9,,,,,,,,,,,,,,,,,,,,,,DelayDiscountingTitrated,11-19-2024,11:29:09,11/19/2024 4:29:09 PM,2091,1,16,DelayDiscountingTitrated-2091-1,1754936443,1,75.007,"<?xml version=""1.0""?>\n<Clock xmlns:dt=""urn:schemas-microsoft-com:datatypes""><Description dt:dt=""string"">E-Prime Primary Realtime Clock</Description><StartTime><Timestamp dt:dt=""int"">0</Timestamp><DateUtc dt:dt=""string"">2024-11-19T16:29:08Z</DateUtc></StartTime><FrequencyChanges><FrequencyChange><Frequency dt:dt=""r8"">10000000</Frequency><Timestamp dt:dt=""r8"">5215842512641</Timestamp><Current dt:dt=""r8"">0</Current><DateUtc dt:dt=""string"">2024-11-19T16:29:08Z</DateUtc></FrequencyChange></FrequencyChanges></Clock>\n",3.0.3.43,3.0.3.60,3.0.3.60,Full,1.0.0.8,Keyboard,Keyboard
TrialProc,,List2,,,,,,,,974,3,975,974,Keyboard,1021,3,0,,,,,,,,,,,,,,,,,,,,10,1,10,,,,,,,,,,,,,,,,,,,,,,DelayDiscountingTitrated,11-19-2024,11:29:09,11/19/2024 4:29:09 PM,2091,1,16,DelayDiscountingTitrated-2091-1,1754936443,1,75.007,"<?xml version=""1.0""?>\n<Clock xmlns:dt=""urn:schemas-microsoft-com:datatypes""><Description dt:dt=""string"">E-Prime Primary Realtime Clock</Description><StartTime><Timestamp dt:dt=""int"">0</Timestamp><DateUtc dt:dt=""string"">2024-11-19T16:29:08Z</DateUtc></StartTime><FrequencyChanges><FrequencyChange><Frequency dt:dt=""r8"">10000000</Frequency><Timestamp dt:dt=""r8"">5215842512641</Timestamp><Current dt:dt=""r8"">0</Current><DateUtc dt:dt=""string"">2024-11-19T16:29:08Z</DateUtc></FrequencyChange></FrequencyChanges></Clock>\n",3.0.3.43,3.0.3.60,3.0.3.60,Full,1.0.0.8,Keyboard,Keyboard
discount,,List3,,,,,,,,,,,,,,,,,,500,1 week,7,,,,,,,,,,,,,,,,,,2,1,1,,,,,,,,,,,,,,,,,,,DelayDiscountingTitrated,11-19-2024,11:29:09,11/19/2024 4:29:09 PM,2091,1,16,DelayDiscountingTitrated-2091-1,1754936443,1,75.007,"<?xml version=""1.0""?>\n<Clock xmlns:dt=""urn:schemas-microsoft-com:datatypes""><Description dt:dt=""string"">E-Prime Primary Realtime Clock</Description><StartTime><Timestamp dt:dt=""int"">0</Timestamp><DateUtc dt:dt=""string"">2024-11-19T16:29:08Z</DateUtc></StartTime><FrequencyChanges><FrequencyChange><Frequency dt:dt=""r8"">10000000</Frequency><Timestamp dt:dt=""r8"">5215842512641</Timestamp><Current dt:dt=""r8"">0</Current><DateUtc dt:dt=""string"">2024-11-19T16:29:08Z</DateUtc></FrequencyChange></FrequencyChanges></Clock>\n",3.0.3.43,3.0.3.60,3.0.3.60,Full,1.0.0.8,Keyboard,Keyboard
onewkproc,,List1,,,,,,,,,,,,,,,,,,,,,,,,1,1,3,3,Keyboard,,,,,,,,,,,,,,,,,,,,,,,,,,,,,,,DelayDiscountingTitrated,11-19-2024,11:29:09,11/19/2024 4:29:09 PM,2091,1,16,DelayDiscountingTitrated-2091-1,1754936443,1,75.007,"<?xml version=""1.0""?>\n<Clock xmlns:dt=""urn:schemas-microsoft-com:datatypes""><Description dt:dt=""string"">E-Prime Primary Realtime Clock</Description><StartTime><Timestamp dt:dt=""int"">0</Timestamp><DateUtc dt:dt=""string"">2024-11-19T16:29:08Z</DateUtc></StartTime><FrequencyChanges><FrequencyChange><Frequency dt:dt=""r8"">10000000</Frequency><Timestamp dt:dt=""r8"">5215842512641</Timestamp><Current dt:dt=""r8"">0</Current><DateUtc dt:dt=""string"">2024-11-19T16:29:08Z</DateUtc></FrequencyChange></FrequencyChanges></Clock>\n",3.0.3.43,3.0.3.60,3.0.3.60,Full,1.0.0.8,Keyboard,Keyboard
Init4,,List12,,,Keyboard,1837,1,0,,400,1,800,,,,,,,,,,,,,,,,,,,,,,,,,,,,,,,1,1,1,,,,,,,,,,,,,,,,DelayDiscountingTitrated,11-19-2024,11:29:09,11/19/2024 4:29:09 PM,2091,1,16,DelayDiscountingTitrated-2091-1,1754936443,1,75.007,"<?xml version=""1.0""?>\n<Clock xmlns:dt=""urn:schemas-microsoft-com:datatypes""><Description dt:dt=""string"">E-Prime Primary Realtime Clock</Description><StartTime><Timestamp dt:dt=""int"">0</Timestamp><DateUtc dt:dt=""string"">2024-11-19T16:29:08Z</DateUtc></StartTime><FrequencyChanges><FrequencyChange><Frequency dt:dt=""r8"">10000000</Frequency><Timestamp dt:dt=""r8"">5215842512641</Timestamp><Current dt:dt=""r8"">0</Current><DateUtc dt:dt=""string"">2024-11-19T16:29:08Z</DateUtc></FrequencyChange></FrequencyChanges></Clock>\n",3.0.3.43,3.0.3.60,3.0.3.60,Full,1.0.0.8,Keyboard,Keyboard
Proc4,,List12,,,,,,,,200,1,400,400,Keyboard,1892,1,0,,200,,,,,,,,,,,,,,,,,,,,,,,,2,1,2,,,,,,,,,,,,,,,,DelayDiscountingTitrated,11-19-2024,11:29:09,11/19/2024 4:29:09 PM,2091,1,16,DelayDiscountingTitrated-2091-1,1754936443,1,75.007,"<?xml version=""1.0""?>\n<Clock xmlns:dt=""urn:schemas-microsoft-com:datatypes""><Description dt:dt=""string"">E-Prime Primary Realtime Clock</Description><StartTime><Timestamp dt:dt=""int"">0</Timestamp><DateUtc dt:dt=""string"">2024-11-19T16:29:08Z</DateUtc></StartTime><FrequencyChanges><FrequencyChange><Frequency dt:dt=""r8"">10000000</Frequency><Timestamp dt:dt=""r8"">5215842512641</Timestamp><Current dt:dt=""r8"">0</Current><DateUtc dt:dt=""string"">2024-11-19T16:29:08Z</DateUtc></FrequencyChange></FrequencyChanges></Clock>\n",3.0.3.43,3.0.3.60,3.0.3.60,Full,1.0.0.8,Keyboard,Keyboard
Proc4,,List12,,,,,,,,100,1,200,200,Keyboard,392,1,0,,100,,,,,,,,,,,,,,,,,,,,,,,,3,1,3,,,,,,,,,,,,,,,,DelayDiscountingTitrated,11-19-2024,11:29:09,11/19/2024 4:29:09 PM,2091,1,16,DelayDiscountingTitrated-2091-1,1754936443,1,75.007,"<?xml version=""1.0""?>\n<Clock xmlns:dt=""urn:schemas-microsoft-com:datatypes""><Description dt:dt=""string"">E-Prime Primary Realtime Clock</Description><StartTime><Timestamp dt:dt=""int"">0</Timestamp><DateUtc dt:dt=""string"">2024-11-19T16:29:08Z</DateUtc></StartTime><FrequencyChanges><FrequencyChange><Frequency dt:dt=""r8"">10000000</Frequency><Timestamp dt:dt=""r8"">5215842512641</Timestamp><Current dt:dt=""r8"">0</Current><DateUtc dt:dt=""string"">2024-11-19T16:29:08Z</DateUtc></FrequencyChange></FrequencyChanges></Clock>\n",3.0.3.43,3.0.3.60,3.0.3.60,Full,1.0.0.8,Keyboard,Keyboard
Proc4,,List12,,,,,,,,50,1,100,100,Keyboard,487,1,0,,50,,,,,,,,,,,,,,,,,,,,,,,,4,1,4,,,,,,,,,,,,,,,,DelayDiscountingTitrated,11-19-2024,11:29:09,11/19/2024 4:29:09 PM,2091,1,16,DelayDiscountingTitrated-2091-1,1754936443,1,75.007,"<?xml version=""1.0""?>\n<Clock xmlns:dt=""urn:schemas-microsoft-com:datatypes""><Description dt:dt=""string"">E-Prime Primary Realtime Clock</Description><StartTime><Timestamp dt:dt=""int"">0</Timestamp><DateUtc dt:dt=""string"">2024-11-19T16:29:08Z</DateUtc></StartTime><FrequencyChanges><FrequencyChange><Frequency dt:dt=""r8"">10000000</Frequency><Timestamp dt:dt=""r8"">5215842512641</Timestamp><Current dt:dt=""r8"">0</Current><DateUtc dt:dt=""string"">2024-11-19T16:29:08Z</DateUtc></FrequencyChange></FrequencyChanges></Clock>\n",3.0.3.43,3.0.3.60,3.0.3.60,Full,1.0.0.8,Keyboard,Keyboard
Proc4,,List12,,,,,,,,75,3,50,50,Keyboard,2825,3,0,,25,,,,,,,,,,,,,,,,,,,,,,,,5,1,5,,,,,,,,,,,,,,,,DelayDiscountingTitrated,11-19-2024,11:29:09,11/19/2024 4:29:09 PM,2091,1,16,DelayDiscountingTitrated-2091-1,1754936443,1,75.007,"<?xml version=""1.0""?>\n<Clock xmlns:dt=""urn:schemas-microsoft-com:datatypes""><Description dt:dt=""string"">E-Prime Primary Realtime Clock</Description><StartTime><Timestamp dt:dt=""int"">0</Timestamp><DateUtc dt:dt=""string"">2024-11-19T16:29:08Z</DateUtc></StartTime><FrequencyChanges><FrequencyChange><Frequency dt:dt=""r8"">10000000</Frequency><Timestamp dt:dt=""r8"">5215842512641</Timestamp><Current dt:dt=""r8"">0</Current><DateUtc dt:dt=""string"">2024-11-19T16:29:08Z</DateUtc></FrequencyChange></FrequencyChanges></Clock>\n",3.0.3.43,3.0.3.60,3.0.3.60,Full,1.0.0.8,Keyboard,Keyboard
Proc4,,List12,,,,,,,,87,3,75,75,Keyboard,927,3,0,,12,,,,,,,,,,,,,,,,,,,,,,,,6,1,6,,,,,,,,,,,,,,,,DelayDiscountingTitrated,11-19-2024,11:29:09,11/19/2024 4:29:09 PM,2091,1,16,DelayDiscountingTitrated-2091-1,1754936443,1,75.007,"<?xml version=""1.0""?>\n<Clock xmlns:dt=""urn:schemas-microsoft-com:datatypes""><Description dt:dt=""string"">E-Prime Primary Realtime Clock</Description><StartTime><Timestamp dt:dt=""int"">0</Timestamp><DateUtc dt:dt=""string"">2024-11-19T16:29:08Z</DateUtc></StartTime><FrequencyChanges><FrequencyChange><Frequency dt:dt=""r8"">10000000</Frequency><Timestamp dt:dt=""r8"">5215842512641</Timestamp><Current dt:dt=""r8"">0</Current><DateUtc dt:dt=""string"">2024-11-19T16:29:08Z</DateUtc></FrequencyChange></FrequencyChanges></Clock>\n",3.0.3.43,3.0.3.60,3.0.3.60,Full,1.0.0.8,Keyboard,Keyboard
Proc4,,List12,,,,,,,,81,1,87,87,Keyboard,1762,1,0,,6,,,,,,,,,,,,,,,,,,,,,,,,7,1,7,,,,,,,,,,,,,,,,DelayDiscountingTitrated,11-19-2024,11:29:09,11/19/2024 4:29:09 PM,2091,1,16,DelayDiscountingTitrated-2091-1,1754936443,1,75.007,"<?xml version=""1.0""?>\n<Clock xmlns:dt=""urn:schemas-microsoft-com:datatypes""><Description dt:dt=""string"">E-Prime Primary Realtime Clock</Description><StartTime><Timestamp dt:dt=""int"">0</Timestamp><DateUtc dt:dt=""string"">2024-11-19T16:29:08Z</DateUtc></StartTime><FrequencyChanges><FrequencyChange><Frequency dt:dt=""r8"">10000000</Frequency><Timestamp dt:dt=""r8"">5215842512641</Timestamp><Current dt:dt=""r8"">0</Current><DateUtc dt:dt=""string"">2024-11-19T16:29:08Z</DateUtc></FrequencyChange></FrequencyChanges></Clock>\n",3.0.3.43,3.0.3.60,3.0.3.60,Full,1.0.0.8,Keyboard,Keyboard
Proc4,,List12,,,,,,,,84,3,81,81,Keyboard,2208,3,0,,3,,,,,,,,,,,,,,,,,,,,,,,,8,1,8,,,,,,,,,,,,,,,,DelayDiscountingTitrated,11-19-2024,11:29:09,11/19/2024 4:29:09 PM,2091,1,16,DelayDiscountingTitrated-2091-1,1754936443,1,75.007,"<?xml version=""1.0""?>\n<Clock xmlns:dt=""urn:schemas-microsoft-com:datatypes""><Description dt:dt=""string"">E-Prime Primary Realtime Clock</Description><StartTime><Timestamp dt:dt=""int"">0</Timestamp><DateUtc dt:dt=""string"">2024-11-19T16:29:08Z</DateUtc></StartTime><FrequencyChanges><FrequencyChange><Frequency dt:dt=""r8"">10000000</Frequency><Timestamp dt:dt=""r8"">5215842512641</Timestamp><Current dt:dt=""r8"">0</Current><DateUtc dt:dt=""string"">2024-11-19T16:29:08Z</DateUtc></FrequencyChange></FrequencyChanges></Clock>\n",3.0.3.43,3.0.3.60,3.0.3.60,Full,1.0.0.8,Keyboard,Keyboard
Proc4,,List12,,,,,,,,86,3,84,84,Keyboard,1638,3,0,,2,,,,,,,,,,,,,,,,,,,,,,,,9,1,9,,,,,,,,,,,,,,,,DelayDiscountingTitrated,11-19-2024,11:29:09,11/19/2024 4:29:09 PM,2091,1,16,DelayDiscountingTitrated-2091-1,1754936443,1,75.007,"<?xml version=""1.0""?>\n<Clock xmlns:dt=""urn:schemas-microsoft-com:datatypes""><Description dt:dt=""string"">E-Prime Primary Realtime Clock</Description><StartTime><Timestamp dt:dt=""int"">0</Timestamp><DateUtc dt:dt=""string"">2024-11-19T16:29:08Z</DateUtc></StartTime><FrequencyChanges><FrequencyChange><Frequency dt:dt=""r8"">10000000</Frequency><Timestamp dt:dt=""r8"">5215842512641</Timestamp><Current dt:dt=""r8"">0</Current><DateUtc dt:dt=""string"">2024-11-19T16:29:08Z</DateUtc></FrequencyChange></FrequencyChanges></Clock>\n",3.0.3.43,3.0.3.60,3.0.3.60,Full,1.0.0.8,Keyboard,Keyboard
Proc4,,List12,,,,,,,,85,1,86,86,Keyboard,585,1,0,,1,,,,,,,,,,,,,,,,,,,,,,,,10,1,10,,,,,,,,,,,,,,,,DelayDiscountingTitrated,11-19-2024,11:29:09,11/19/2024 4:29:09 PM,2091,1,16,DelayDiscountingTitrated-2091-1,1754936443,1,75.007,"<?xml version=""1.0""?>\n<Clock xmlns:dt=""urn:schemas-microsoft-com:datatypes""><Description dt:dt=""string"">E-Prime Primary Realtime Clock</Description><StartTime><Timestamp dt:dt=""int"">0</Timestamp><DateUtc dt:dt=""string"">2024-11-19T16:29:08Z</DateUtc></StartTime><FrequencyChanges><FrequencyChange><Frequency dt:dt=""r8"">10000000</Frequency><Timestamp dt:dt=""r8"">5215842512641</Timestamp><Current dt:dt=""r8"">0</Current><DateUtc dt:dt=""string"">2024-11-19T16:29:08Z</DateUtc></FrequencyChange></FrequencyChanges></Clock>\n",3.0.3.43,3.0.3.60,3.0.3.60,Full,1.0.0.8,Keyboard,Keyboard
Proc4,,List12,,,,,,,,85,1,86,85,Keyboard,594,1,0,,,,,,,,,,,,,,,,,,,,,,,,,,11,1,11,,,,,,,,,,,,,,,,DelayDiscountingTitrated,11-19-2024,11:29:09,11/19/2024 4:29:09 PM,2091,1,16,DelayDiscountingTitrated-2091-1,1754936443,1,75.007,"<?xml version=""1.0""?>\n<Clock xmlns:dt=""urn:schemas-microsoft-com:datatypes""><Description dt:dt=""string"">E-Prime Primary Realtime Clock</Description><StartTime><Timestamp dt:dt=""int"">0</Timestamp><DateUtc dt:dt=""string"">2024-11-19T16:29:08Z</DateUtc></StartTime><FrequencyChanges><FrequencyChange><Frequency dt:dt=""r8"">10000000</Frequency><Timestamp dt:dt=""r8"">5215842512641</Timestamp><Current dt:dt=""r8"">0</Current><DateUtc dt:dt=""string"">2024-11-19T16:29:08Z</DateUtc></FrequencyChange></FrequencyChanges></Clock>\n",3.0.3.43,3.0.3.60,3.0.3.60,Full,1.0.0.8,Keyboard,Keyboard
discount4,,List7,,,,,,,,,,,,,,,,,,800,5 years,1825,,,,,,,,,,,,,,,,,,,,,,,,3,1,1,,,,,,,,,,,,,DelayDiscountingTitrated,11-19-2024,11:29:09,11/19/2024 4:29:09 PM,2091,1,16,DelayDiscountingTitrated-2091-1,1754936443,1,75.007,"<?xml version=""1.0""?>\n<Clock xmlns:dt=""urn:schemas-microsoft-com:datatypes""><Description dt:dt=""string"">E-Prime Primary Realtime Clock</Description><StartTime><Timestamp dt:dt=""int"">0</Timestamp><DateUtc dt:dt=""string"">2024-11-19T16:29:08Z</DateUtc></StartTime><FrequencyChanges><FrequencyChange><Frequency dt:dt=""r8"">10000000</Frequency><Timestamp dt:dt=""r8"">5215842512641</Timestamp><Current dt:dt=""r8"">0</Current><DateUtc dt:dt=""string"">2024-11-19T16:29:08Z</DateUtc></FrequencyChange></FrequencyChanges></Clock>\n",3.0.3.43,3.0.3.60,3.0.3.60,Full,1.0.0.8,Keyboard,Keyboard
fiveyearproc,,List1,,,,,,,,,,,,,,,,,,,,,,,,5,1,4,4,Keyboard,,,,,,,,,,,,,,,,,,,,,,,,,,,,,,,DelayDiscountingTitrated,11-19-2024,11:29:09,11/19/2024 4:29:09 PM,2091,1,16,DelayDiscountingTitrated-2091-1,1754936443,1,75.007,"<?xml version=""1.0""?>\n<Clock xmlns:dt=""urn:schemas-microsoft-com:datatypes""><Description dt:dt=""string"">E-Prime Primary Realtime Clock</Description><StartTime><Timestamp dt:dt=""int"">0</Timestamp><DateUtc dt:dt=""string"">2024-11-19T16:29:08Z</DateUtc></StartTime><FrequencyChanges><FrequencyChange><Frequency dt:dt=""r8"">10000000</Frequency><Timestamp dt:dt=""r8"">5215842512641</Timestamp><Current dt:dt=""r8"">0</Current><DateUtc dt:dt=""string"">2024-11-19T16:29:08Z</DateUtc></FrequencyChange></FrequencyChanges></Clock>\n",3.0.3.43,3.0.3.60,3.0.3.60,Full,1.0.0.8,Keyboard,Keyboard
Init1,,List9,,,Keyboard,2782,3,0,,600,3,200,,,,,,,,,,,,,,,,,,,,,,,,,,,,,,,,,,,,,1,1,1,,,,,,,,,,DelayDiscountingTitrated,11-19-2024,11:29:09,11/19/2024 4:29:09 PM,2091,1,16,DelayDiscountingTitrated-2091-1,1754936443,1,75.007,"<?xml version=""1.0""?>\n<Clock xmlns:dt=""urn:schemas-microsoft-com:datatypes""><Description dt:dt=""string"">E-Prime Primary Realtime Clock</Description><StartTime><Timestamp dt:dt=""int"">0</Timestamp><DateUtc dt:dt=""string"">2024-11-19T16:29:08Z</DateUtc></StartTime><FrequencyChanges><FrequencyChange><Frequency dt:dt=""r8"">10000000</Frequency><Timestamp dt:dt=""r8"">5215842512641</Timestamp><Current dt:dt=""r8"">0</Current><DateUtc dt:dt=""string"">2024-11-19T16:29:08Z</DateUtc></FrequencyChange></FrequencyChanges></Clock>\n",3.0.3.43,3.0.3.60,3.0.3.60,Full,1.0.0.8,Keyboard,Keyboard
Proc1,,List9,,,,,,,,400,1,600,600,Keyboard,1632,1,0,,200,,,,,,,,,,,,,,,,,,,,,,,,,,,,,,2,1,2,,,,,,,,,,DelayDiscountingTitrated,11-19-2024,11:29:09,11/19/2024 4:29:09 PM,2091,1,16,DelayDiscountingTitrated-2091-1,1754936443,1,75.007,"<?xml version=""1.0""?>\n<Clock xmlns:dt=""urn:schemas-microsoft-com:datatypes""><Description dt:dt=""string"">E-Prime Primary Realtime Clock</Description><StartTime><Timestamp dt:dt=""int"">0</Timestamp><DateUtc dt:dt=""string"">2024-11-19T16:29:08Z</DateUtc></StartTime><FrequencyChanges><FrequencyChange><Frequency dt:dt=""r8"">10000000</Frequency><Timestamp dt:dt=""r8"">5215842512641</Timestamp><Current dt:dt=""r8"">0</Current><DateUtc dt:dt=""string"">2024-11-19T16:29:08Z</DateUtc></FrequencyChange></FrequencyChanges></Clock>\n",3.0.3.43,3.0.3.60,3.0.3.60,Full,1.0.0.8,Keyboard,Keyboard
Proc1,,List9,,,,,,,,500,3,400,400,Keyboard,1656,3,0,,100,,,,,,,,,,,,,,,,,,,,,,,,,,,,,,3,1,3,,,,,,,,,,DelayDiscountingTitrated,11-19-2024,11:29:09,11/19/2024 4:29:09 PM,2091,1,16,DelayDiscountingTitrated-2091-1,1754936443,1,75.007,"<?xml version=""1.0""?>\n<Clock xmlns:dt=""urn:schemas-microsoft-com:datatypes""><Description dt:dt=""string"">E-Prime Primary Realtime Clock</Description><StartTime><Timestamp dt:dt=""int"">0</Timestamp><DateUtc dt:dt=""string"">2024-11-19T16:29:08Z</DateUtc></StartTime><FrequencyChanges><FrequencyChange><Frequency dt:dt=""r8"">10000000</Frequency><Timestamp dt:dt=""r8"">5215842512641</Timestamp><Current dt:dt=""r8"">0</Current><DateUtc dt:dt=""string"">2024-11-19T16:29:08Z</DateUtc></FrequencyChange></FrequencyChanges></Clock>\n",3.0.3.43,3.0.3.60,3.0.3.60,Full,1.0.0.8,Keyboard,Keyboard
Proc1,,List9,,,,,,,,450,1,500,500,Keyboard,3635,1,0,,50,,,,,,,,,,,,,,,,,,,,,,,,,,,,,,4,1,4,,,,,,,,,,DelayDiscountingTitrated,11-19-2024,11:29:09,11/19/2024 4:29:09 PM,2091,1,16,DelayDiscountingTitrated-2091-1,1754936443,1,75.007,"<?xml version=""1.0""?>\n<Clock xmlns:dt=""urn:schemas-microsoft-com:datatypes""><Description dt:dt=""string"">E-Prime Primary Realtime Clock</Description><StartTime><Timestamp dt:dt=""int"">0</Timestamp><DateUtc dt:dt=""string"">2024-11-19T16:29:08Z</DateUtc></StartTime><FrequencyChanges><FrequencyChange><Frequency dt:dt=""r8"">10000000</Frequency><Timestamp dt:dt=""r8"">5215842512641</Timestamp><Current dt:dt=""r8"">0</Current><DateUtc dt:dt=""string"">2024-11-19T16:29:08Z</DateUtc></FrequencyChange></FrequencyChanges></Clock>\n",3.0.3.43,3.0.3.60,3.0.3.60,Full,1.0.0.8,Keyboard,Keyboard
Proc1,,List9,,,,,,,,475,3,450,450,Keyboard,2310,3,0,,25,,,,,,,,,,,,,,,,,,,,,,,,,,,,,,5,1,5,,,,,,,,,,DelayDiscountingTitrated,11-19-2024,11:29:09,11/19/2024 4:29:09 PM,2091,1,16,DelayDiscountingTitrated-2091-1,1754936443,1,75.007,"<?xml version=""1.0""?>\n<Clock xmlns:dt=""urn:schemas-microsoft-com:datatypes""><Description dt:dt=""string"">E-Prime Primary Realtime Clock</Description><StartTime><Timestamp dt:dt=""int"">0</Timestamp><DateUtc dt:dt=""string"">2024-11-19T16:29:08Z</DateUtc></StartTime><FrequencyChanges><FrequencyChange><Frequency dt:dt=""r8"">10000000</Frequency><Timestamp dt:dt=""r8"">5215842512641</Timestamp><Current dt:dt=""r8"">0</Current><DateUtc dt:dt=""string"">2024-11-19T16:29:08Z</DateUtc></FrequencyChange></FrequencyChanges></Clock>\n",3.0.3.43,3.0.3.60,3.0.3.60,Full,1.0.0.8,Keyboard,Keyboard
Proc1,,List9,,,,,,,,463,1,475,475,Keyboard,1270,1,0,,12,,,,,,,,,,,,,,,,,,,,,,,,,,,,,,6,1,6,,,,,,,,,,DelayDiscountingTitrated,11-19-2024,11:29:09,11/19/2024 4:29:09 PM,2091,1,16,DelayDiscountingTitrated-2091-1,1754936443,1,75.007,"<?xml version=""1.0""?>\n<Clock xmlns:dt=""urn:schemas-microsoft-com:datatypes""><Description dt:dt=""string"">E-Prime Primary Realtime Clock</Description><StartTime><Timestamp dt:dt=""int"">0</Timestamp><DateUtc dt:dt=""string"">2024-11-19T16:29:08Z</DateUtc></StartTime><FrequencyChanges><FrequencyChange><Frequency dt:dt=""r8"">10000000</Frequency><Timestamp dt:dt=""r8"">5215842512641</Timestamp><Current dt:dt=""r8"">0</Current><DateUtc dt:dt=""string"">2024-11-19T16:29:08Z</DateUtc></FrequencyChange></FrequencyChanges></Clock>\n",3.0.3.43,3.0.3.60,3.0.3.60,Full,1.0.0.8,Keyboard,Keyboard
Proc1,,List9,,,,,,,,469,3,463,463,Keyboard,1293,3,0,,6,,,,,,,,,,,,,,,,,,,,,,,,,,,,,,7,1,7,,,,,,,,,,DelayDiscountingTitrated,11-19-2024,11:29:09,11/19/2024 4:29:09 PM,2091,1,16,DelayDiscountingTitrated-2091-1,1754936443,1,75.007,"<?xml version=""1.0""?>\n<Clock xmlns:dt=""urn:schemas-microsoft-com:datatypes""><Description dt:dt=""string"">E-Prime Primary Realtime Clock</Description><StartTime><Timestamp dt:dt=""int"">0</Timestamp><DateUtc dt:dt=""string"">2024-11-19T16:29:08Z</DateUtc></StartTime><FrequencyChanges><FrequencyChange><Frequency dt:dt=""r8"">10000000</Frequency><Timestamp dt:dt=""r8"">5215842512641</Timestamp><Current dt:dt=""r8"">0</Current><DateUtc dt:dt=""string"">2024-11-19T16:29:08Z</DateUtc></FrequencyChange></FrequencyChanges></Clock>\n",3.0.3.43,3.0.3.60,3.0.3.60,Full,1.0.0.8,Keyboard,Keyboard
Proc1,,List9,,,,,,,,466,1,469,469,Keyboard,728,1,0,,3,,,,,,,,,,,,,,,,,,,,,,,,,,,,,,8,1,8,,,,,,,,,,DelayDiscountingTitrated,11-19-2024,11:29:09,11/19/2024 4:29:09 PM,2091,1,16,DelayDiscountingTitrated-2091-1,1754936443,1,75.007,"<?xml version=""1.0""?>\n<Clock xmlns:dt=""urn:schemas-microsoft-com:datatypes""><Description dt:dt=""string"">E-Prime Primary Realtime Clock</Description><StartTime><Timestamp dt:dt=""int"">0</Timestamp><DateUtc dt:dt=""string"">2024-11-19T16:29:08Z</DateUtc></StartTime><FrequencyChanges><FrequencyChange><Frequency dt:dt=""r8"">10000000</Frequency><Timestamp dt:dt=""r8"">5215842512641</Timestamp><Current dt:dt=""r8"">0</Current><DateUtc dt:dt=""string"">2024-11-19T16:29:08Z</DateUtc></FrequencyChange></FrequencyChanges></Clock>\n",3.0.3.43,3.0.3.60,3.0.3.60,Full,1.0.0.8,Keyboard,Keyboard
Proc1,,List9,,,,,,,,468,3,466,466,Keyboard,2751,3,0,,2,,,,,,,,,,,,,,,,,,,,,,,,,,,,,,9,1,9,,,,,,,,,,DelayDiscountingTitrated,11-19-2024,11:29:09,11/19/2024 4:29:09 PM,2091,1,16,DelayDiscountingTitrated-2091-1,1754936443,1,75.007,"<?xml version=""1.0""?>\n<Clock xmlns:dt=""urn:schemas-microsoft-com:datatypes""><Description dt:dt=""string"">E-Prime Primary Realtime Clock</Description><StartTime><Timestamp dt:dt=""int"">0</Timestamp><DateUtc dt:dt=""string"">2024-11-19T16:29:08Z</DateUtc></StartTime><FrequencyChanges><FrequencyChange><Frequency dt:dt=""r8"">10000000</Frequency><Timestamp dt:dt=""r8"">5215842512641</Timestamp><Current dt:dt=""r8"">0</Current><DateUtc dt:dt=""string"">2024-11-19T16:29:08Z</DateUtc></FrequencyChange></FrequencyChanges></Clock>\n",3.0.3.43,3.0.3.60,3.0.3.60,Full,1.0.0.8,Keyboard,Keyboard
Proc1,,List9,,,,,,,,467,1,468,468,Keyboard,867,1,0,,1,,,,,,,,,,,,,,,,,,,,,,,,,,,,,,10,1,10,,,,,,,,,,DelayDiscountingTitrated,11-19-2024,11:29:09,11/19/2024 4:29:09 PM,2091,1,16,DelayDiscountingTitrated-2091-1,1754936443,1,75.007,"<?xml version=""1.0""?>\n<Clock xmlns:dt=""urn:schemas-microsoft-com:datatypes""><Description dt:dt=""string"">E-Prime Primary Realtime Clock</Description><StartTime><Timestamp dt:dt=""int"">0</Timestamp><DateUtc dt:dt=""string"">2024-11-19T16:29:08Z</DateUtc></StartTime><FrequencyChanges><FrequencyChange><Frequency dt:dt=""r8"">10000000</Frequency><Timestamp dt:dt=""r8"">5215842512641</Timestamp><Current dt:dt=""r8"">0</Current><DateUtc dt:dt=""string"">2024-11-19T16:29:08Z</DateUtc></FrequencyChange></FrequencyChanges></Clock>\n",3.0.3.43,3.0.3.60,3.0.3.60,Full,1.0.0.8,Keyboard,Keyboard
Proc1,,List9,,,,,,,,467,3,468,467,Keyboard,1556,3,0,,,,,,,,,,,,,,,,,,,,,,,,,,,,,,,,11,1,11,,,,,,,,,,DelayDiscountingTitrated,11-19-2024,11:29:09,11/19/2024 4:29:09 PM,2091,1,16,DelayDiscountingTitrated-2091-1,1754936443,1,75.007,"<?xml version=""1.0""?>\n<Clock xmlns:dt=""urn:schemas-microsoft-com:datatypes""><Description dt:dt=""string"">E-Prime Primary Realtime Clock</Description><StartTime><Timestamp dt:dt=""int"">0</Timestamp><DateUtc dt:dt=""string"">2024-11-19T16:29:08Z</DateUtc></StartTime><FrequencyChanges><FrequencyChange><Frequency dt:dt=""r8"">10000000</Frequency><Timestamp dt:dt=""r8"">5215842512641</Timestamp><Current dt:dt=""r8"">0</Current><DateUtc dt:dt=""string"">2024-11-19T16:29:08Z</DateUtc></FrequencyChange></FrequencyChanges></Clock>\n",3.0.3.43,3.0.3.60,3.0.3.60,Full,1.0.0.8,Keyboard,Keyboard
discount1,,List4,,,,,,,,,,,,,,,,,,200,1 month,30,,,,,,,,,,,,,,,,,,,,,,,,,,,,,,1,1,1,,,,,,,DelayDiscountingTitrated,11-19-2024,11:29:09,11/19/2024 4:29:09 PM,2091,1,16,DelayDiscountingTitrated-2091-1,1754936443,1,75.007,"<?xml version=""1.0""?>\n<Clock xmlns:dt=""urn:schemas-microsoft-com:datatypes""><Description dt:dt=""string"">E-Prime Primary Realtime Clock</Description><StartTime><Timestamp dt:dt=""int"">0</Timestamp><DateUtc dt:dt=""string"">2024-11-19T16:29:08Z</DateUtc></StartTime><FrequencyChanges><FrequencyChange><Frequency dt:dt=""r8"">10000000</Frequency><Timestamp dt:dt=""r8"">5215842512641</Timestamp><Current dt:dt=""r8"">0</Current><DateUtc dt:dt=""string"">2024-11-19T16:29:08Z</DateUtc></FrequencyChange></FrequencyChanges></Clock>\n",3.0.3.43,3.0.3.60,3.0.3.60,Full,1.0.0.8,Keyboard,Keyboard
onemthproc,,List1,,,,,,,,,,,,,,,,,,,,,,,,2,1,5,5,Keyboard,,,,,,,,,,,,,,,,,,,,,,,,,,,,,,,DelayDiscountingTitrated,11-19-2024,11:29:09,11/19/2024 4:29:09 PM,2091,1,16,DelayDiscountingTitrated-2091-1,1754936443,1,75.007,"<?xml version=""1.0""?>\n<Clock xmlns:dt=""urn:schemas-microsoft-com:datatypes""><Description dt:dt=""string"">E-Prime Primary Realtime Clock</Description><StartTime><Timestamp dt:dt=""int"">0</Timestamp><DateUtc dt:dt=""string"">2024-11-19T16:29:08Z</DateUtc></StartTime><FrequencyChanges><FrequencyChange><Frequency dt:dt=""r8"">10000000</Frequency><Timestamp dt:dt=""r8"">5215842512641</Timestamp><Current dt:dt=""r8"">0</Current><DateUtc dt:dt=""string"">2024-11-19T16:29:08Z</DateUtc></FrequencyChange></FrequencyChanges></Clock>\n",3.0.3.43,3.0.3.60,3.0.3.60,Full,1.0.0.8,Keyboard,Keyboard
Init5,,List13,,,Keyboard,2072,1,0,,400,1,800,,,,,,,,,,,,,,,,,,,,,,,,,,,,,,,,,,,,,,,,,,,1,1,1,,,,DelayDiscountingTitrated,11-19-2024,11:29:09,11/19/2024 4:29:09 PM,2091,1,16,DelayDiscountingTitrated-2091-1,1754936443,1,75.007,"<?xml version=""1.0""?>\n<Clock xmlns:dt=""urn:schemas-microsoft-com:datatypes""><Description dt:dt=""string"">E-Prime Primary Realtime Clock</Description><StartTime><Timestamp dt:dt=""int"">0</Timestamp><DateUtc dt:dt=""string"">2024-11-19T16:29:08Z</DateUtc></StartTime><FrequencyChanges><FrequencyChange><Frequency dt:dt=""r8"">10000000</Frequency><Timestamp dt:dt=""r8"">5215842512641</Timestamp><Current dt:dt=""r8"">0</Current><DateUtc dt:dt=""string"">2024-11-19T16:29:08Z</DateUtc></FrequencyChange></FrequencyChanges></Clock>\n",3.0.3.43,3.0.3.60,3.0.3.60,Full,1.0.0.8,Keyboard,Keyboard
Proc5,,List13,,,,,,,,200,1,400,400,Keyboard,1097,1,0,,200,,,,,,,,,,,,,,,,,,,,,,,,,,,,,,,,,,,,2,1,2,,,,DelayDiscountingTitrated,11-19-2024,11:29:09,11/19/2024 4:29:09 PM,2091,1,16,DelayDiscountingTitrated-2091-1,1754936443,1,75.007,"<?xml version=""1.0""?>\n<Clock xmlns:dt=""urn:schemas-microsoft-com:datatypes""><Description dt:dt=""string"">E-Prime Primary Realtime Clock</Description><StartTime><Timestamp dt:dt=""int"">0</Timestamp><DateUtc dt:dt=""string"">2024-11-19T16:29:08Z</DateUtc></StartTime><FrequencyChanges><FrequencyChange><Frequency dt:dt=""r8"">10000000</Frequency><Timestamp dt:dt=""r8"">5215842512641</Timestamp><Current dt:dt=""r8"">0</Current><DateUtc dt:dt=""string"">2024-11-19T16:29:08Z</DateUtc></FrequencyChange></FrequencyChanges></Clock>\n",3.0.3.43,3.0.3.60,3.0.3.60,Full,1.0.0.8,Keyboard,Keyboard
Proc5,,List13,,,,,,,,100,1,200,200,Keyboard,647,1,0,,100,,,,,,,,,,,,,,,,,,,,,,,,,,,,,,,,,,,,3,1,3,,,,DelayDiscountingTitrated,11-19-2024,11:29:09,11/19/2024 4:29:09 PM,2091,1,16,DelayDiscountingTitrated-2091-1,1754936443,1,75.007,"<?xml version=""1.0""?>\n<Clock xmlns:dt=""urn:schemas-microsoft-com:datatypes""><Description dt:dt=""string"">E-Prime Primary Realtime Clock</Description><StartTime><Timestamp dt:dt=""int"">0</Timestamp><DateUtc dt:dt=""string"">2024-11-19T16:29:08Z</DateUtc></StartTime><FrequencyChanges><FrequencyChange><Frequency dt:dt=""r8"">10000000</Frequency><Timestamp dt:dt=""r8"">5215842512641</Timestamp><Current dt:dt=""r8"">0</Current><DateUtc dt:dt=""string"">2024-11-19T16:29:08Z</DateUtc></FrequencyChange></FrequencyChanges></Clock>\n",3.0.3.43,3.0.3.60,3.0.3.60,Full,1.0.0.8,Keyboard,Keyboard
Proc5,,List13,,,,,,,,50,1,100,100,Keyboard,352,1,0,,50,,,,,,,,,,,,,,,,,,,,,,,,,,,,,,,,,,,,4,1,4,,,,DelayDiscountingTitrated,11-19-2024,11:29:09,11/19/2024 4:29:09 PM,2091,1,16,DelayDiscountingTitrated-2091-1,1754936443,1,75.007,"<?xml version=""1.0""?>\n<Clock xmlns:dt=""urn:schemas-microsoft-com:datatypes""><Description dt:dt=""string"">E-Prime Primary Realtime Clock</Description><StartTime><Timestamp dt:dt=""int"">0</Timestamp><DateUtc dt:dt=""string"">2024-11-19T16:29:08Z</DateUtc></StartTime><FrequencyChanges><FrequencyChange><Frequency dt:dt=""r8"">10000000</Frequency><Timestamp dt:dt=""r8"">5215842512641</Timestamp><Current dt:dt=""r8"">0</Current><DateUtc dt:dt=""string"">2024-11-19T16:29:08Z</DateUtc></FrequencyChange></FrequencyChanges></Clock>\n",3.0.3.43,3.0.3.60,3.0.3.60,Full,1.0.0.8,Keyboard,Keyboard
Proc5,,List13,,,,,,,,75,3,50,50,Keyboard,675,3,0,,25,,,,,,,,,,,,,,,,,,,,,,,,,,,,,,,,,,,,5,1,5,,,,DelayDiscountingTitrated,11-19-2024,11:29:09,11/19/2024 4:29:09 PM,2091,1,16,DelayDiscountingTitrated-2091-1,1754936443,1,75.007,"<?xml version=""1.0""?>\n<Clock xmlns:dt=""urn:schemas-microsoft-com:datatypes""><Description dt:dt=""string"">E-Prime Primary Realtime Clock</Description><StartTime><Timestamp dt:dt=""int"">0</Timestamp><DateUtc dt:dt=""string"">2024-11-19T16:29:08Z</DateUtc></StartTime><FrequencyChanges><FrequencyChange><Frequency dt:dt=""r8"">10000000</Frequency><Timestamp dt:dt=""r8"">5215842512641</Timestamp><Current dt:dt=""r8"">0</Current><DateUtc dt:dt=""string"">2024-11-19T16:29:08Z</DateUtc></FrequencyChange></FrequencyChanges></Clock>\n",3.0.3.43,3.0.3.60,3.0.3.60,Full,1.0.0.8,Keyboard,Keyboard
Proc5,,List13,,,,,,,,63,1,75,75,Keyboard,2416,1,0,,12,,,,,,,,,,,,,,,,,,,,,,,,,,,,,,,,,,,,6,1,6,,,,DelayDiscountingTitrated,11-19-2024,11:29:09,11/19/2024 4:29:09 PM,2091,1,16,DelayDiscountingTitrated-2091-1,1754936443,1,75.007,"<?xml version=""1.0""?>\n<Clock xmlns:dt=""urn:schemas-microsoft-com:datatypes""><Description dt:dt=""string"">E-Prime Primary Realtime Clock</Description><StartTime><Timestamp dt:dt=""int"">0</Timestamp><DateUtc dt:dt=""string"">2024-11-19T16:29:08Z</DateUtc></StartTime><FrequencyChanges><FrequencyChange><Frequency dt:dt=""r8"">10000000</Frequency><Timestamp dt:dt=""r8"">5215842512641</Timestamp><Current dt:dt=""r8"">0</Current><DateUtc dt:dt=""string"">2024-11-19T16:29:08Z</DateUtc></FrequencyChange></FrequencyChanges></Clock>\n",3.0.3.43,3.0.3.60,3.0.3.60,Full,1.0.0.8,Keyboard,Keyboard
Proc5,,List13,,,,,,,,57,1,63,63,Keyboard,654,1,0,,6,,,,,,,,,,,,,,,,,,,,,,,,,,,,,,,,,,,,7,1,7,,,,DelayDiscountingTitrated,11-19-2024,11:29:09,11/19/2024 4:29:09 PM,2091,1,16,DelayDiscountingTitrated-2091-1,1754936443,1,75.007,"<?xml version=""1.0""?>\n<Clock xmlns:dt=""urn:schemas-microsoft-com:datatypes""><Description dt:dt=""string"">E-Prime Primary Realtime Clock</Description><StartTime><Timestamp dt:dt=""int"">0</Timestamp><DateUtc dt:dt=""string"">2024-11-19T16:29:08Z</DateUtc></StartTime><FrequencyChanges><FrequencyChange><Frequency dt:dt=""r8"">10000000</Frequency><Timestamp dt:dt=""r8"">5215842512641</Timestamp><Current dt:dt=""r8"">0</Current><DateUtc dt:dt=""string"">2024-11-19T16:29:08Z</DateUtc></FrequencyChange></FrequencyChanges></Clock>\n",3.0.3.43,3.0.3.60,3.0.3.60,Full,1.0.0.8,Keyboard,Keyboard
Proc5,,List13,,,,,,,,54,1,57,57,Keyboard,1210,1,0,,3,,,,,,,,,,,,,,,,,,,,,,,,,,,,,,,,,,,,8,1,8,,,,DelayDiscountingTitrated,11-19-2024,11:29:09,11/19/2024 4:29:09 PM,2091,1,16,DelayDiscountingTitrated-2091-1,1754936443,1,75.007,"<?xml version=""1.0""?>\n<Clock xmlns:dt=""urn:schemas-microsoft-com:datatypes""><Description dt:dt=""string"">E-Prime Primary Realtime Clock</Description><StartTime><Timestamp dt:dt=""int"">0</Timestamp><DateUtc dt:dt=""string"">2024-11-19T16:29:08Z</DateUtc></StartTime><FrequencyChanges><FrequencyChange><Frequency dt:dt=""r8"">10000000</Frequency><Timestamp dt:dt=""r8"">5215842512641</Timestamp><Current dt:dt=""r8"">0</Current><DateUtc dt:dt=""string"">2024-11-19T16:29:08Z</DateUtc></FrequencyChange></FrequencyChanges></Clock>\n",3.0.3.43,3.0.3.60,3.0.3.60,Full,1.0.0.8,Keyboard,Keyboard
Proc5,,List13,,,,,,,,52,1,54,54,Keyboard,590,1,0,,2,,,,,,,,,,,,,,,,,,,,,,,,,,,,,,,,,,,,9,1,9,,,,DelayDiscountingTitrated,11-19-2024,11:29:09,11/19/2024 4:29:09 PM,2091,1,16,DelayDiscountingTitrated-2091-1,1754936443,1,75.007,"<?xml version=""1.0""?>\n<Clock xmlns:dt=""urn:schemas-microsoft-com:datatypes""><Description dt:dt=""string"">E-Prime Primary Realtime Clock</Description><StartTime><Timestamp dt:dt=""int"">0</Timestamp><DateUtc dt:dt=""string"">2024-11-19T16:29:08Z</DateUtc></StartTime><FrequencyChanges><FrequencyChange><Frequency dt:dt=""r8"">10000000</Frequency><Timestamp dt:dt=""r8"">5215842512641</Timestamp><Current dt:dt=""r8"">0</Current><DateUtc dt:dt=""string"">2024-11-19T16:29:08Z</DateUtc></FrequencyChange></FrequencyChanges></Clock>\n",3.0.3.43,3.0.3.60,3.0.3.60,Full,1.0.0.8,Keyboard,Keyboard
Proc5,,List13,,,,,,,,51,1,52,52,Keyboard,571,1,0,,1,,,,,,,,,,,,,,,,,,,,,,,,,,,,,,,,,,,,10,1,10,,,,DelayDiscountingTitrated,11-19-2024,11:29:09,11/19/2024 4:29:09 PM,2091,1,16,DelayDiscountingTitrated-2091-1,1754936443,1,75.007,"<?xml version=""1.0""?>\n<Clock xmlns:dt=""urn:schemas-microsoft-com:datatypes""><Description dt:dt=""string"">E-Prime Primary Realtime Clock</Description><StartTime><Timestamp dt:dt=""int"">0</Timestamp><DateUtc dt:dt=""string"">2024-11-19T16:29:08Z</DateUtc></StartTime><FrequencyChanges><FrequencyChange><Frequency dt:dt=""r8"">10000000</Frequency><Timestamp dt:dt=""r8"">5215842512641</Timestamp><Current dt:dt=""r8"">0</Current><DateUtc dt:dt=""string"">2024-11-19T16:29:08Z</DateUtc></FrequencyChange></FrequencyChanges></Clock>\n",3.0.3.43,3.0.3.60,3.0.3.60,Full,1.0.0.8,Keyboard,Keyboard
Proc5,,List13,,,,,,,,51,1,52,51,Keyboard,690,1,0,,,,,,,,,,,,,,,,,,,,,,,,,,,,,,,,,,,,,,11,1,11,,,,DelayDiscountingTitrated,11-19-2024,11:29:09,11/19/2024 4:29:09 PM,2091,1,16,DelayDiscountingTitrated-2091-1,1754936443,1,75.007,"<?xml version=""1.0""?>\n<Clock xmlns:dt=""urn:schemas-microsoft-com:datatypes""><Description dt:dt=""string"">E-Prime Primary Realtime Clock</Description><StartTime><Timestamp dt:dt=""int"">0</Timestamp><DateUtc dt:dt=""string"">2024-11-19T16:29:08Z</DateUtc></StartTime><FrequencyChanges><FrequencyChange><Frequency dt:dt=""r8"">10000000</Frequency><Timestamp dt:dt=""r8"">5215842512641</Timestamp><Current dt:dt=""r8"">0</Current><DateUtc dt:dt=""string"">2024-11-19T16:29:08Z</DateUtc></FrequencyChange></FrequencyChanges></Clock>\n",3.0.3.43,3.0.3.60,3.0.3.60,Full,1.0.0.8,Keyboard,Keyboard
discount5,,List8,,,,,,,,,,,,,,,,,,800,15 years,5475,,,,,,,,,,,,,,,,,,,,,,,,,,,,,,,,,,,,3,2,1,DelayDiscountingTitrated,11-19-2024,11:29:09,11/19/2024 4:29:09 PM,2091,1,16,DelayDiscountingTitrated-2091-1,1754936443,1,75.007,"<?xml version=""1.0""?>\n<Clock xmlns:dt=""urn:schemas-microsoft-com:datatypes""><Description dt:dt=""string"">E-Prime Primary Realtime Clock</Description><StartTime><Timestamp dt:dt=""int"">0</Timestamp><DateUtc dt:dt=""string"">2024-11-19T16:29:08Z</DateUtc></StartTime><FrequencyChanges><FrequencyChange><Frequency dt:dt=""r8"">10000000</Frequency><Timestamp dt:dt=""r8"">5215842512641</Timestamp><Current dt:dt=""r8"">0</Current><DateUtc dt:dt=""string"">2024-11-19T16:29:08Z</DateUtc></FrequencyChange></FrequencyChanges></Clock>\n",3.0.3.43,3.0.3.60,3.0.3.60,Full,1.0.0.8,Keyboard,Keyboard
fifteenyearproc,,List1,,,,,,,,,,,,,,,,,,,,,,,,6,1,6,6,Keyboard,,,,,,,,,,,,,,,,,,,,,,,,,,,,,,,DelayDiscountingTitrated,11-19-2024,11:29:09,11/19/2024 4:29:09 PM,2091,1,16,DelayDiscountingTitrated-2091-1,1754936443,1,75.007,"<?xml version=""1.0""?>\n<Clock xmlns:dt=""urn:schemas-microsoft-com:datatypes""><Description dt:dt=""string"">E-Prime Primary Realtime Clock</Description><StartTime><Timestamp dt:dt=""int"">0</Timestamp><DateUtc dt:dt=""string"">2024-11-19T16:29:08Z</DateUtc></StartTime><FrequencyChanges><FrequencyChange><Frequency dt:dt=""r8"">10000000</Frequency><Timestamp dt:dt=""r8"">5215842512641</Timestamp><Current dt:dt=""r8"">0</Current><DateUtc dt:dt=""string"">2024-11-19T16:29:08Z</DateUtc></FrequencyChange></FrequencyChanges></Clock>\n",3.0.3.43,3.0.3.60,3.0.3.60,Full,1.0.0.8,Keyboard,Keyboard
,,,,,,,,,,,,,,,,,,,,,,,,,,,,,,,,,,,,,,,,,,,,,,,,,,,,,,,,,,,,,DelayDiscountingTitrated,11-19-2024,11:29:09,11/19/2024 4:29:09 PM,2091,1,16,DelayDiscountingTitrated-2091-1,1754936443,1,75.007,"<?xml version=""1.0""?>\n<Clock xmlns:dt=""urn:schemas-microsoft-com:datatypes""><Description dt:dt=""string"">E-Prime Primary Realtime Clock</Description><StartTime><Timestamp dt:dt=""int"">0</Timestamp><DateUtc dt:dt=""string"">2024-11-19T16:29:08Z</DateUtc></StartTime><FrequencyChanges><FrequencyChange><Frequency dt:dt=""r8"">10000000</Frequency><Timestamp dt:dt=""r8"">5215842512641</Timestamp><Current dt:dt=""r8"">0</Current><DateUtc dt:dt=""string"">2024-11-19T16:29:08Z</DateUtc></FrequencyChange></FrequencyChanges></Clock>\n",3.0.3.43,3.0.3.60,3.0.3.60,Full,1.0.0.8,Keyboard,Keyboard
