Procedure,List9,Running,List9.Cycle,List9.Sample,Slide2.RT,Slide2.RESP,Slide4.RT,Slide4.RESP,immed3,respprev,prevalue,imstring,Slide1.RT,Slide1.RESP,Slide5.RT,Slide5.RESP,immed5,immed,delaypd,timedays,List4,List4.Cycle,List4.Sample,List1,List1.Cycle,List1.Sample,roundnumber,List13,List13.Cycle,List13.Sample,List8,List8.Cycle,List8.Sample,List12,List12.Cycle,List12.Sample,List7,List7.Cycle,List7.Sample,List11,List11.Cycle,List11.Sample,List6,List6.Cycle,List6.Sample,List2,List2.Cycle,List2.Sample,List3,List3.Cycle,List3.Sample,List10,List10.Cycle,List10.Sample,List5,List5.Cycle,List5.Sample,Experiment,SessionDate,SessionTime,SessionStartDateTimeUtc,Subject,Session,Age,DataFile.Basename,RandomSeed,Group,Display.RefreshRate,Clock.Information,StudioVersion,RuntimeVersion,RuntimeVersionExpected,RuntimeCapabilities,ExperimentVersion
Init1,1,List9,1,1,5105,1,0,,400,1,800,,,,,,,,,,,,,,,,,,,,,,,,,,,,,,,,,,,,,,,,,,,,,,,DelayDiscountingTitrated,09-29-2023,13:27:35,9/29/2023 5:27:35 PM,3016,1,19,DelayDiscountingTitrated-3016-1,1986132285,1,60.017,"<?xml version=""1.0""?>\n<Clock xmlns:dt=""urn:schemas-microsoft-com:datatypes""><Description dt:dt=""string"">E-Prime Primary Realtime Clock</Description><StartTime><Timestamp dt:dt=""int"">0</Timestamp><DateUtc dt:dt=""string"">2023-09-29T17:27:35Z</DateUtc></StartTime><FrequencyChanges><FrequencyChange><Frequency dt:dt=""r8"">10000000</Frequency><Timestamp dt:dt=""r8"">15678614769531</Timestamp><Current dt:dt=""r8"">0</Current><DateUtc dt:dt=""string"">2023-09-29T17:27:35Z</DateUtc></FrequencyChange></FrequencyChanges></Clock>\n",2.0.10.252,2.0.10.356,2.0.10.356,Professional,1.0.0.6
Proc1,2,List9,1,2,,,,,200,1,400,400,5964,1,0,,200,,,,,,,,,,,,,,,,,,,,,,,,,,,,,,,,,,,,,,,,,DelayDiscountingTitrated,09-29-2023,13:27:35,9/29/2023 5:27:35 PM,3016,1,19,DelayDiscountingTitrated-3016-1,1986132285,1,60.017,"<?xml version=""1.0""?>\n<Clock xmlns:dt=""urn:schemas-microsoft-com:datatypes""><Description dt:dt=""string"">E-Prime Primary Realtime Clock</Description><StartTime><Timestamp dt:dt=""int"">0</Timestamp><DateUtc dt:dt=""string"">2023-09-29T17:27:35Z</DateUtc></StartTime><FrequencyChanges><FrequencyChange><Frequency dt:dt=""r8"">10000000</Frequency><Timestamp dt:dt=""r8"">15678614769531</Timestamp><Current dt:dt=""r8"">0</Current><DateUtc dt:dt=""string"">2023-09-29T17:27:35Z</DateUtc></FrequencyChange></FrequencyChanges></Clock>\n",2.0.10.252,2.0.10.356,2.0.10.356,Professional,1.0.0.6
Proc1,3,List9,1,3,,,,,300,3,200,200,2406,3,0,,100,,,,,,,,,,,,,,,,,,,,,,,,,,,,,,,,,,,,,,,,,DelayDiscountingTitrated,09-29-2023,13:27:35,9/29/2023 5:27:35 PM,3016,1,19,DelayDiscountingTitrated-3016-1,1986132285,1,60.017,"<?xml version=""1.0""?>\n<Clock xmlns:dt=""urn:schemas-microsoft-com:datatypes""><Description dt:dt=""string"">E-Prime Primary Realtime Clock</Description><StartTime><Timestamp dt:dt=""int"">0</Timestamp><DateUtc dt:dt=""string"">2023-09-29T17:27:35Z</DateUtc></StartTime><FrequencyChanges><FrequencyChange><Frequency dt:dt=""r8"">10000000</Frequency><Timestamp dt:dt=""r8"">15678614769531</Timestamp><Current dt:dt=""r8"">0</Current><DateUtc dt:dt=""string"">2023-09-29T17:27:35Z</DateUtc></FrequencyChange></FrequencyChanges></Clock>\n",2.0.10.252,2.0.10.356,2.0.10.356,Professional,1.0.0.6
Proc1,4,List9,1,4,,,,,350,3,300,300,2261,3,0,,50,,,,,,,,,,,,,,,,,,,,,,,,,,,,,,,,,,,,,,,,,DelayDiscountingTitrated,09-29-2023,13:27:35,9/29/2023 5:27:35 PM,3016,1,19,DelayDiscountingTitrated-3016-1,1986132285,1,60.017,"<?xml version=""1.0""?>\n<Clock xmlns:dt=""urn:schemas-microsoft-com:datatypes""><Description dt:dt=""string"">E-Prime Primary Realtime Clock</Description><StartTime><Timestamp dt:dt=""int"">0</Timestamp><DateUtc dt:dt=""string"">2023-09-29T17:27:35Z</DateUtc></StartTime><FrequencyChanges><FrequencyChange><Frequency dt:dt=""r8"">10000000</Frequency><Timestamp dt:dt=""r8"">15678614769531</Timestamp><Current dt:dt=""r8"">0</Current><DateUtc dt:dt=""string"">2023-09-29T17:27:35Z</DateUtc></FrequencyChange></FrequencyChanges></Clock>\n",2.0.10.252,2.0.10.356,2.0.10.356,Professional,1.0.0.6
Proc1,5,List9,1,5,,,,,375,3,350,350,3265,3,0,,25,,,,,,,,,,,,,,,,,,,,,,,,,,,,,,,,,,,,,,,,,DelayDiscountingTitrated,09-29-2023,13:27:35,9/29/2023 5:27:35 PM,3016,1,19,DelayDiscountingTitrated-3016-1,1986132285,1,60.017,"<?xml version=""1.0""?>\n<Clock xmlns:dt=""urn:schemas-microsoft-com:datatypes""><Description dt:dt=""string"">E-Prime Primary Realtime Clock</Description><StartTime><Timestamp dt:dt=""int"">0</Timestamp><DateUtc dt:dt=""string"">2023-09-29T17:27:35Z</DateUtc></StartTime><FrequencyChanges><FrequencyChange><Frequency dt:dt=""r8"">10000000</Frequency><Timestamp dt:dt=""r8"">15678614769531</Timestamp><Current dt:dt=""r8"">0</Current><DateUtc dt:dt=""string"">2023-09-29T17:27:35Z</DateUtc></FrequencyChange></FrequencyChanges></Clock>\n",2.0.10.252,2.0.10.356,2.0.10.356,Professional,1.0.0.6
Proc1,6,List9,1,6,,,,,363,1,375,375,1126,1,0,,12,,,,,,,,,,,,,,,,,,,,,,,,,,,,,,,,,,,,,,,,,DelayDiscountingTitrated,09-29-2023,13:27:35,9/29/2023 5:27:35 PM,3016,1,19,DelayDiscountingTitrated-3016-1,1986132285,1,60.017,"<?xml version=""1.0""?>\n<Clock xmlns:dt=""urn:schemas-microsoft-com:datatypes""><Description dt:dt=""string"">E-Prime Primary Realtime Clock</Description><StartTime><Timestamp dt:dt=""int"">0</Timestamp><DateUtc dt:dt=""string"">2023-09-29T17:27:35Z</DateUtc></StartTime><FrequencyChanges><FrequencyChange><Frequency dt:dt=""r8"">10000000</Frequency><Timestamp dt:dt=""r8"">15678614769531</Timestamp><Current dt:dt=""r8"">0</Current><DateUtc dt:dt=""string"">2023-09-29T17:27:35Z</DateUtc></FrequencyChange></FrequencyChanges></Clock>\n",2.0.10.252,2.0.10.356,2.0.10.356,Professional,1.0.0.6
Proc1,7,List9,1,7,,,,,369,3,363,363,1768,3,0,,6,,,,,,,,,,,,,,,,,,,,,,,,,,,,,,,,,,,,,,,,,DelayDiscountingTitrated,09-29-2023,13:27:35,9/29/2023 5:27:35 PM,3016,1,19,DelayDiscountingTitrated-3016-1,1986132285,1,60.017,"<?xml version=""1.0""?>\n<Clock xmlns:dt=""urn:schemas-microsoft-com:datatypes""><Description dt:dt=""string"">E-Prime Primary Realtime Clock</Description><StartTime><Timestamp dt:dt=""int"">0</Timestamp><DateUtc dt:dt=""string"">2023-09-29T17:27:35Z</DateUtc></StartTime><FrequencyChanges><FrequencyChange><Frequency dt:dt=""r8"">10000000</Frequency><Timestamp dt:dt=""r8"">15678614769531</Timestamp><Current dt:dt=""r8"">0</Current><DateUtc dt:dt=""string"">2023-09-29T17:27:35Z</DateUtc></FrequencyChange></FrequencyChanges></Clock>\n",2.0.10.252,2.0.10.356,2.0.10.356,Professional,1.0.0.6
Proc1,8,List9,1,8,,,,,372,3,369,369,1232,3,0,,3,,,,,,,,,,,,,,,,,,,,,,,,,,,,,,,,,,,,,,,,,DelayDiscountingTitrated,09-29-2023,13:27:35,9/29/2023 5:27:35 PM,3016,1,19,DelayDiscountingTitrated-3016-1,1986132285,1,60.017,"<?xml version=""1.0""?>\n<Clock xmlns:dt=""urn:schemas-microsoft-com:datatypes""><Description dt:dt=""string"">E-Prime Primary Realtime Clock</Description><StartTime><Timestamp dt:dt=""int"">0</Timestamp><DateUtc dt:dt=""string"">2023-09-29T17:27:35Z</DateUtc></StartTime><FrequencyChanges><FrequencyChange><Frequency dt:dt=""r8"">10000000</Frequency><Timestamp dt:dt=""r8"">15678614769531</Timestamp><Current dt:dt=""r8"">0</Current><DateUtc dt:dt=""string"">2023-09-29T17:27:35Z</DateUtc></FrequencyChange></FrequencyChanges></Clock>\n",2.0.10.252,2.0.10.356,2.0.10.356,Professional,1.0.0.6
Proc1,9,List9,1,9,,,,,374,3,372,372,1141,3,0,,2,,,,,,,,,,,,,,,,,,,,,,,,,,,,,,,,,,,,,,,,,DelayDiscountingTitrated,09-29-2023,13:27:35,9/29/2023 5:27:35 PM,3016,1,19,DelayDiscountingTitrated-3016-1,1986132285,1,60.017,"<?xml version=""1.0""?>\n<Clock xmlns:dt=""urn:schemas-microsoft-com:datatypes""><Description dt:dt=""string"">E-Prime Primary Realtime Clock</Description><StartTime><Timestamp dt:dt=""int"">0</Timestamp><DateUtc dt:dt=""string"">2023-09-29T17:27:35Z</DateUtc></StartTime><FrequencyChanges><FrequencyChange><Frequency dt:dt=""r8"">10000000</Frequency><Timestamp dt:dt=""r8"">15678614769531</Timestamp><Current dt:dt=""r8"">0</Current><DateUtc dt:dt=""string"">2023-09-29T17:27:35Z</DateUtc></FrequencyChange></FrequencyChanges></Clock>\n",2.0.10.252,2.0.10.356,2.0.10.356,Professional,1.0.0.6
Proc1,10,List9,1,10,,,,,375,3,374,374,1031,3,0,,1,,,,,,,,,,,,,,,,,,,,,,,,,,,,,,,,,,,,,,,,,DelayDiscountingTitrated,09-29-2023,13:27:35,9/29/2023 5:27:35 PM,3016,1,19,DelayDiscountingTitrated-3016-1,1986132285,1,60.017,"<?xml version=""1.0""?>\n<Clock xmlns:dt=""urn:schemas-microsoft-com:datatypes""><Description dt:dt=""string"">E-Prime Primary Realtime Clock</Description><StartTime><Timestamp dt:dt=""int"">0</Timestamp><DateUtc dt:dt=""string"">2023-09-29T17:27:35Z</DateUtc></StartTime><FrequencyChanges><FrequencyChange><Frequency dt:dt=""r8"">10000000</Frequency><Timestamp dt:dt=""r8"">15678614769531</Timestamp><Current dt:dt=""r8"">0</Current><DateUtc dt:dt=""string"">2023-09-29T17:27:35Z</DateUtc></FrequencyChange></FrequencyChanges></Clock>\n",2.0.10.252,2.0.10.356,2.0.10.356,Professional,1.0.0.6
Proc1,11,List9,1,11,,,,,375,3,374,375,1420,3,0,,,,,,,,,,,,,,,,,,,,,,,,,,,,,,,,,,,,,,,,,,,DelayDiscountingTitrated,09-29-2023,13:27:35,9/29/2023 5:27:35 PM,3016,1,19,DelayDiscountingTitrated-3016-1,1986132285,1,60.017,"<?xml version=""1.0""?>\n<Clock xmlns:dt=""urn:schemas-microsoft-com:datatypes""><Description dt:dt=""string"">E-Prime Primary Realtime Clock</Description><StartTime><Timestamp dt:dt=""int"">0</Timestamp><DateUtc dt:dt=""string"">2023-09-29T17:27:35Z</DateUtc></StartTime><FrequencyChanges><FrequencyChange><Frequency dt:dt=""r8"">10000000</Frequency><Timestamp dt:dt=""r8"">15678614769531</Timestamp><Current dt:dt=""r8"">0</Current><DateUtc dt:dt=""string"">2023-09-29T17:27:35Z</DateUtc></FrequencyChange></FrequencyChanges></Clock>\n",2.0.10.252,2.0.10.356,2.0.10.356,Professional,1.0.0.6
discount1,,List4,,,,,,,,,,,,,,,,800,1 month,30,3,1,1,,,,,,,,,,,,,,,,,,,,,,,,,,,,,,,,,,,DelayDiscountingTitrated,09-29-2023,13:27:35,9/29/2023 5:27:35 PM,3016,1,19,DelayDiscountingTitrated-3016-1,1986132285,1,60.017,"<?xml version=""1.0""?>\n<Clock xmlns:dt=""urn:schemas-microsoft-com:datatypes""><Description dt:dt=""string"">E-Prime Primary Realtime Clock</Description><StartTime><Timestamp dt:dt=""int"">0</Timestamp><DateUtc dt:dt=""string"">2023-09-29T17:27:35Z</DateUtc></StartTime><FrequencyChanges><FrequencyChange><Frequency dt:dt=""r8"">10000000</Frequency><Timestamp dt:dt=""r8"">15678614769531</Timestamp><Current dt:dt=""r8"">0</Current><DateUtc dt:dt=""string"">2023-09-29T17:27:35Z</DateUtc></FrequencyChange></FrequencyChanges></Clock>\n",2.0.10.252,2.0.10.356,2.0.10.356,Professional,1.0.0.6
onemthproc,,List1,,,,,,,,,,,,,,,,,,,,,,2,1,1,1,,,,,,,,,,,,,,,,,,,,,,,,,,,,,,,DelayDiscountingTitrated,09-29-2023,13:27:35,9/29/2023 5:27:35 PM,3016,1,19,DelayDiscountingTitrated-3016-1,1986132285,1,60.017,"<?xml version=""1.0""?>\n<Clock xmlns:dt=""urn:schemas-microsoft-com:datatypes""><Description dt:dt=""string"">E-Prime Primary Realtime Clock</Description><StartTime><Timestamp dt:dt=""int"">0</Timestamp><DateUtc dt:dt=""string"">2023-09-29T17:27:35Z</DateUtc></StartTime><FrequencyChanges><FrequencyChange><Frequency dt:dt=""r8"">10000000</Frequency><Timestamp dt:dt=""r8"">15678614769531</Timestamp><Current dt:dt=""r8"">0</Current><DateUtc dt:dt=""string"">2023-09-29T17:27:35Z</DateUtc></FrequencyChange></FrequencyChanges></Clock>\n",2.0.10.252,2.0.10.356,2.0.10.356,Professional,1.0.0.6
Init5,,List13,,,4298,1,0,,250,1,500,,,,,,,,,,,,,,,,,1,1,1,,,,,,,,,,,,,,,,,,,,,,,,,,,,DelayDiscountingTitrated,09-29-2023,13:27:35,9/29/2023 5:27:35 PM,3016,1,19,DelayDiscountingTitrated-3016-1,1986132285,1,60.017,"<?xml version=""1.0""?>\n<Clock xmlns:dt=""urn:schemas-microsoft-com:datatypes""><Description dt:dt=""string"">E-Prime Primary Realtime Clock</Description><StartTime><Timestamp dt:dt=""int"">0</Timestamp><DateUtc dt:dt=""string"">2023-09-29T17:27:35Z</DateUtc></StartTime><FrequencyChanges><FrequencyChange><Frequency dt:dt=""r8"">10000000</Frequency><Timestamp dt:dt=""r8"">15678614769531</Timestamp><Current dt:dt=""r8"">0</Current><DateUtc dt:dt=""string"">2023-09-29T17:27:35Z</DateUtc></FrequencyChange></FrequencyChanges></Clock>\n",2.0.10.252,2.0.10.356,2.0.10.356,Professional,1.0.0.6
Proc5,,List13,,,,,,,125,1,250,250,11957,1,0,,125,,,,,,,,,,,2,1,2,,,,,,,,,,,,,,,,,,,,,,,,,,,,DelayDiscountingTitrated,09-29-2023,13:27:35,9/29/2023 5:27:35 PM,3016,1,19,DelayDiscountingTitrated-3016-1,1986132285,1,60.017,"<?xml version=""1.0""?>\n<Clock xmlns:dt=""urn:schemas-microsoft-com:datatypes""><Description dt:dt=""string"">E-Prime Primary Realtime Clock</Description><StartTime><Timestamp dt:dt=""int"">0</Timestamp><DateUtc dt:dt=""string"">2023-09-29T17:27:35Z</DateUtc></StartTime><FrequencyChanges><FrequencyChange><Frequency dt:dt=""r8"">10000000</Frequency><Timestamp dt:dt=""r8"">15678614769531</Timestamp><Current dt:dt=""r8"">0</Current><DateUtc dt:dt=""string"">2023-09-29T17:27:35Z</DateUtc></FrequencyChange></FrequencyChanges></Clock>\n",2.0.10.252,2.0.10.356,2.0.10.356,Professional,1.0.0.6
Proc5,,List13,,,,,,,63,1,125,125,2464,1,0,,62,,,,,,,,,,,3,1,3,,,,,,,,,,,,,,,,,,,,,,,,,,,,DelayDiscountingTitrated,09-29-2023,13:27:35,9/29/2023 5:27:35 PM,3016,1,19,DelayDiscountingTitrated-3016-1,1986132285,1,60.017,"<?xml version=""1.0""?>\n<Clock xmlns:dt=""urn:schemas-microsoft-com:datatypes""><Description dt:dt=""string"">E-Prime Primary Realtime Clock</Description><StartTime><Timestamp dt:dt=""int"">0</Timestamp><DateUtc dt:dt=""string"">2023-09-29T17:27:35Z</DateUtc></StartTime><FrequencyChanges><FrequencyChange><Frequency dt:dt=""r8"">10000000</Frequency><Timestamp dt:dt=""r8"">15678614769531</Timestamp><Current dt:dt=""r8"">0</Current><DateUtc dt:dt=""string"">2023-09-29T17:27:35Z</DateUtc></FrequencyChange></FrequencyChanges></Clock>\n",2.0.10.252,2.0.10.356,2.0.10.356,Professional,1.0.0.6
Proc5,,List13,,,,,,,94,3,63,63,2381,3,0,,31,,,,,,,,,,,4,1,4,,,,,,,,,,,,,,,,,,,,,,,,,,,,DelayDiscountingTitrated,09-29-2023,13:27:35,9/29/2023 5:27:35 PM,3016,1,19,DelayDiscountingTitrated-3016-1,1986132285,1,60.017,"<?xml version=""1.0""?>\n<Clock xmlns:dt=""urn:schemas-microsoft-com:datatypes""><Description dt:dt=""string"">E-Prime Primary Realtime Clock</Description><StartTime><Timestamp dt:dt=""int"">0</Timestamp><DateUtc dt:dt=""string"">2023-09-29T17:27:35Z</DateUtc></StartTime><FrequencyChanges><FrequencyChange><Frequency dt:dt=""r8"">10000000</Frequency><Timestamp dt:dt=""r8"">15678614769531</Timestamp><Current dt:dt=""r8"">0</Current><DateUtc dt:dt=""string"">2023-09-29T17:27:35Z</DateUtc></FrequencyChange></FrequencyChanges></Clock>\n",2.0.10.252,2.0.10.356,2.0.10.356,Professional,1.0.0.6
Proc5,,List13,,,,,,,110,3,94,94,828,3,0,,16,,,,,,,,,,,5,1,5,,,,,,,,,,,,,,,,,,,,,,,,,,,,DelayDiscountingTitrated,09-29-2023,13:27:35,9/29/2023 5:27:35 PM,3016,1,19,DelayDiscountingTitrated-3016-1,1986132285,1,60.017,"<?xml version=""1.0""?>\n<Clock xmlns:dt=""urn:schemas-microsoft-com:datatypes""><Description dt:dt=""string"">E-Prime Primary Realtime Clock</Description><StartTime><Timestamp dt:dt=""int"">0</Timestamp><DateUtc dt:dt=""string"">2023-09-29T17:27:35Z</DateUtc></StartTime><FrequencyChanges><FrequencyChange><Frequency dt:dt=""r8"">10000000</Frequency><Timestamp dt:dt=""r8"">15678614769531</Timestamp><Current dt:dt=""r8"">0</Current><DateUtc dt:dt=""string"">2023-09-29T17:27:35Z</DateUtc></FrequencyChange></FrequencyChanges></Clock>\n",2.0.10.252,2.0.10.356,2.0.10.356,Professional,1.0.0.6
Proc5,,List13,,,,,,,118,3,110,110,2010,3,0,,8,,,,,,,,,,,6,1,6,,,,,,,,,,,,,,,,,,,,,,,,,,,,DelayDiscountingTitrated,09-29-2023,13:27:35,9/29/2023 5:27:35 PM,3016,1,19,DelayDiscountingTitrated-3016-1,1986132285,1,60.017,"<?xml version=""1.0""?>\n<Clock xmlns:dt=""urn:schemas-microsoft-com:datatypes""><Description dt:dt=""string"">E-Prime Primary Realtime Clock</Description><StartTime><Timestamp dt:dt=""int"">0</Timestamp><DateUtc dt:dt=""string"">2023-09-29T17:27:35Z</DateUtc></StartTime><FrequencyChanges><FrequencyChange><Frequency dt:dt=""r8"">10000000</Frequency><Timestamp dt:dt=""r8"">15678614769531</Timestamp><Current dt:dt=""r8"">0</Current><DateUtc dt:dt=""string"">2023-09-29T17:27:35Z</DateUtc></FrequencyChange></FrequencyChanges></Clock>\n",2.0.10.252,2.0.10.356,2.0.10.356,Professional,1.0.0.6
Proc5,,List13,,,,,,,122,3,118,118,1016,3,0,,4,,,,,,,,,,,7,1,7,,,,,,,,,,,,,,,,,,,,,,,,,,,,DelayDiscountingTitrated,09-29-2023,13:27:35,9/29/2023 5:27:35 PM,3016,1,19,DelayDiscountingTitrated-3016-1,1986132285,1,60.017,"<?xml version=""1.0""?>\n<Clock xmlns:dt=""urn:schemas-microsoft-com:datatypes""><Description dt:dt=""string"">E-Prime Primary Realtime Clock</Description><StartTime><Timestamp dt:dt=""int"">0</Timestamp><DateUtc dt:dt=""string"">2023-09-29T17:27:35Z</DateUtc></StartTime><FrequencyChanges><FrequencyChange><Frequency dt:dt=""r8"">10000000</Frequency><Timestamp dt:dt=""r8"">15678614769531</Timestamp><Current dt:dt=""r8"">0</Current><DateUtc dt:dt=""string"">2023-09-29T17:27:35Z</DateUtc></FrequencyChange></FrequencyChanges></Clock>\n",2.0.10.252,2.0.10.356,2.0.10.356,Professional,1.0.0.6
Proc5,,List13,,,,,,,124,3,122,122,678,3,0,,2,,,,,,,,,,,8,1,8,,,,,,,,,,,,,,,,,,,,,,,,,,,,DelayDiscountingTitrated,09-29-2023,13:27:35,9/29/2023 5:27:35 PM,3016,1,19,DelayDiscountingTitrated-3016-1,1986132285,1,60.017,"<?xml version=""1.0""?>\n<Clock xmlns:dt=""urn:schemas-microsoft-com:datatypes""><Description dt:dt=""string"">E-Prime Primary Realtime Clock</Description><StartTime><Timestamp dt:dt=""int"">0</Timestamp><DateUtc dt:dt=""string"">2023-09-29T17:27:35Z</DateUtc></StartTime><FrequencyChanges><FrequencyChange><Frequency dt:dt=""r8"">10000000</Frequency><Timestamp dt:dt=""r8"">15678614769531</Timestamp><Current dt:dt=""r8"">0</Current><DateUtc dt:dt=""string"">2023-09-29T17:27:35Z</DateUtc></FrequencyChange></FrequencyChanges></Clock>\n",2.0.10.252,2.0.10.356,2.0.10.356,Professional,1.0.0.6
Proc5,,List13,,,,,,,125,3,124,124,825,3,0,,1,,,,,,,,,,,9,1,9,,,,,,,,,,,,,,,,,,,,,,,,,,,,DelayDiscountingTitrated,09-29-2023,13:27:35,9/29/2023 5:27:35 PM,3016,1,19,DelayDiscountingTitrated-3016-1,1986132285,1,60.017,"<?xml version=""1.0""?>\n<Clock xmlns:dt=""urn:schemas-microsoft-com:datatypes""><Description dt:dt=""string"">E-Prime Primary Realtime Clock</Description><StartTime><Timestamp dt:dt=""int"">0</Timestamp><DateUtc dt:dt=""string"">2023-09-29T17:27:35Z</DateUtc></StartTime><FrequencyChanges><FrequencyChange><Frequency dt:dt=""r8"">10000000</Frequency><Timestamp dt:dt=""r8"">15678614769531</Timestamp><Current dt:dt=""r8"">0</Current><DateUtc dt:dt=""string"">2023-09-29T17:27:35Z</DateUtc></FrequencyChange></FrequencyChanges></Clock>\n",2.0.10.252,2.0.10.356,2.0.10.356,Professional,1.0.0.6
Proc5,,List13,,,,,,,125,3,124,125,1439,3,0,,,,,,,,,,,,,10,1,10,,,,,,,,,,,,,,,,,,,,,,,,,,,,DelayDiscountingTitrated,09-29-2023,13:27:35,9/29/2023 5:27:35 PM,3016,1,19,DelayDiscountingTitrated-3016-1,1986132285,1,60.017,"<?xml version=""1.0""?>\n<Clock xmlns:dt=""urn:schemas-microsoft-com:datatypes""><Description dt:dt=""string"">E-Prime Primary Realtime Clock</Description><StartTime><Timestamp dt:dt=""int"">0</Timestamp><DateUtc dt:dt=""string"">2023-09-29T17:27:35Z</DateUtc></StartTime><FrequencyChanges><FrequencyChange><Frequency dt:dt=""r8"">10000000</Frequency><Timestamp dt:dt=""r8"">15678614769531</Timestamp><Current dt:dt=""r8"">0</Current><DateUtc dt:dt=""string"">2023-09-29T17:27:35Z</DateUtc></FrequencyChange></FrequencyChanges></Clock>\n",2.0.10.252,2.0.10.356,2.0.10.356,Professional,1.0.0.6
discount5,,List8,,,,,,,,,,,,,,,,500,15 years,5475,,,,,,,,,,,2,2,1,,,,,,,,,,,,,,,,,,,,,,,,,DelayDiscountingTitrated,09-29-2023,13:27:35,9/29/2023 5:27:35 PM,3016,1,19,DelayDiscountingTitrated-3016-1,1986132285,1,60.017,"<?xml version=""1.0""?>\n<Clock xmlns:dt=""urn:schemas-microsoft-com:datatypes""><Description dt:dt=""string"">E-Prime Primary Realtime Clock</Description><StartTime><Timestamp dt:dt=""int"">0</Timestamp><DateUtc dt:dt=""string"">2023-09-29T17:27:35Z</DateUtc></StartTime><FrequencyChanges><FrequencyChange><Frequency dt:dt=""r8"">10000000</Frequency><Timestamp dt:dt=""r8"">15678614769531</Timestamp><Current dt:dt=""r8"">0</Current><DateUtc dt:dt=""string"">2023-09-29T17:27:35Z</DateUtc></FrequencyChange></FrequencyChanges></Clock>\n",2.0.10.252,2.0.10.356,2.0.10.356,Professional,1.0.0.6
fifteenyearproc,,List1,,,,,,,,,,,,,,,,,,,,,,6,1,2,2,,,,,,,,,,,,,,,,,,,,,,,,,,,,,,,DelayDiscountingTitrated,09-29-2023,13:27:35,9/29/2023 5:27:35 PM,3016,1,19,DelayDiscountingTitrated-3016-1,1986132285,1,60.017,"<?xml version=""1.0""?>\n<Clock xmlns:dt=""urn:schemas-microsoft-com:datatypes""><Description dt:dt=""string"">E-Prime Primary Realtime Clock</Description><StartTime><Timestamp dt:dt=""int"">0</Timestamp><DateUtc dt:dt=""string"">2023-09-29T17:27:35Z</DateUtc></StartTime><FrequencyChanges><FrequencyChange><Frequency dt:dt=""r8"">10000000</Frequency><Timestamp dt:dt=""r8"">15678614769531</Timestamp><Current dt:dt=""r8"">0</Current><DateUtc dt:dt=""string"">2023-09-29T17:27:35Z</DateUtc></FrequencyChange></FrequencyChanges></Clock>\n",2.0.10.252,2.0.10.356,2.0.10.356,Professional,1.0.0.6
Init4,,List12,,,3194,1,0,,250,1,500,,,,,,,,,,,,,,,,,,,,,,,1,1,1,,,,,,,,,,,,,,,,,,,,,,DelayDiscountingTitrated,09-29-2023,13:27:35,9/29/2023 5:27:35 PM,3016,1,19,DelayDiscountingTitrated-3016-1,1986132285,1,60.017,"<?xml version=""1.0""?>\n<Clock xmlns:dt=""urn:schemas-microsoft-com:datatypes""><Description dt:dt=""string"">E-Prime Primary Realtime Clock</Description><StartTime><Timestamp dt:dt=""int"">0</Timestamp><DateUtc dt:dt=""string"">2023-09-29T17:27:35Z</DateUtc></StartTime><FrequencyChanges><FrequencyChange><Frequency dt:dt=""r8"">10000000</Frequency><Timestamp dt:dt=""r8"">15678614769531</Timestamp><Current dt:dt=""r8"">0</Current><DateUtc dt:dt=""string"">2023-09-29T17:27:35Z</DateUtc></FrequencyChange></FrequencyChanges></Clock>\n",2.0.10.252,2.0.10.356,2.0.10.356,Professional,1.0.0.6
Proc4,,List12,,,,,,,125,1,250,250,857,1,0,,125,,,,,,,,,,,,,,,,,2,1,2,,,,,,,,,,,,,,,,,,,,,,DelayDiscountingTitrated,09-29-2023,13:27:35,9/29/2023 5:27:35 PM,3016,1,19,DelayDiscountingTitrated-3016-1,1986132285,1,60.017,"<?xml version=""1.0""?>\n<Clock xmlns:dt=""urn:schemas-microsoft-com:datatypes""><Description dt:dt=""string"">E-Prime Primary Realtime Clock</Description><StartTime><Timestamp dt:dt=""int"">0</Timestamp><DateUtc dt:dt=""string"">2023-09-29T17:27:35Z</DateUtc></StartTime><FrequencyChanges><FrequencyChange><Frequency dt:dt=""r8"">10000000</Frequency><Timestamp dt:dt=""r8"">15678614769531</Timestamp><Current dt:dt=""r8"">0</Current><DateUtc dt:dt=""string"">2023-09-29T17:27:35Z</DateUtc></FrequencyChange></FrequencyChanges></Clock>\n",2.0.10.252,2.0.10.356,2.0.10.356,Professional,1.0.0.6
Proc4,,List12,,,,,,,63,1,125,125,1038,1,0,,62,,,,,,,,,,,,,,,,,3,1,3,,,,,,,,,,,,,,,,,,,,,,DelayDiscountingTitrated,09-29-2023,13:27:35,9/29/2023 5:27:35 PM,3016,1,19,DelayDiscountingTitrated-3016-1,1986132285,1,60.017,"<?xml version=""1.0""?>\n<Clock xmlns:dt=""urn:schemas-microsoft-com:datatypes""><Description dt:dt=""string"">E-Prime Primary Realtime Clock</Description><StartTime><Timestamp dt:dt=""int"">0</Timestamp><DateUtc dt:dt=""string"">2023-09-29T17:27:35Z</DateUtc></StartTime><FrequencyChanges><FrequencyChange><Frequency dt:dt=""r8"">10000000</Frequency><Timestamp dt:dt=""r8"">15678614769531</Timestamp><Current dt:dt=""r8"">0</Current><DateUtc dt:dt=""string"">2023-09-29T17:27:35Z</DateUtc></FrequencyChange></FrequencyChanges></Clock>\n",2.0.10.252,2.0.10.356,2.0.10.356,Professional,1.0.0.6
Proc4,,List12,,,,,,,94,3,63,63,651,3,0,,31,,,,,,,,,,,,,,,,,4,1,4,,,,,,,,,,,,,,,,,,,,,,DelayDiscountingTitrated,09-29-2023,13:27:35,9/29/2023 5:27:35 PM,3016,1,19,DelayDiscountingTitrated-3016-1,1986132285,1,60.017,"<?xml version=""1.0""?>\n<Clock xmlns:dt=""urn:schemas-microsoft-com:datatypes""><Description dt:dt=""string"">E-Prime Primary Realtime Clock</Description><StartTime><Timestamp dt:dt=""int"">0</Timestamp><DateUtc dt:dt=""string"">2023-09-29T17:27:35Z</DateUtc></StartTime><FrequencyChanges><FrequencyChange><Frequency dt:dt=""r8"">10000000</Frequency><Timestamp dt:dt=""r8"">15678614769531</Timestamp><Current dt:dt=""r8"">0</Current><DateUtc dt:dt=""string"">2023-09-29T17:27:35Z</DateUtc></FrequencyChange></FrequencyChanges></Clock>\n",2.0.10.252,2.0.10.356,2.0.10.356,Professional,1.0.0.6
Proc4,,List12,,,,,,,110,3,94,94,1703,3,0,,16,,,,,,,,,,,,,,,,,5,1,5,,,,,,,,,,,,,,,,,,,,,,DelayDiscountingTitrated,09-29-2023,13:27:35,9/29/2023 5:27:35 PM,3016,1,19,DelayDiscountingTitrated-3016-1,1986132285,1,60.017,"<?xml version=""1.0""?>\n<Clock xmlns:dt=""urn:schemas-microsoft-com:datatypes""><Description dt:dt=""string"">E-Prime Primary Realtime Clock</Description><StartTime><Timestamp dt:dt=""int"">0</Timestamp><DateUtc dt:dt=""string"">2023-09-29T17:27:35Z</DateUtc></StartTime><FrequencyChanges><FrequencyChange><Frequency dt:dt=""r8"">10000000</Frequency><Timestamp dt:dt=""r8"">15678614769531</Timestamp><Current dt:dt=""r8"">0</Current><DateUtc dt:dt=""string"">2023-09-29T17:27:35Z</DateUtc></FrequencyChange></FrequencyChanges></Clock>\n",2.0.10.252,2.0.10.356,2.0.10.356,Professional,1.0.0.6
Proc4,,List12,,,,,,,118,3,110,110,578,3,0,,8,,,,,,,,,,,,,,,,,6,1,6,,,,,,,,,,,,,,,,,,,,,,DelayDiscountingTitrated,09-29-2023,13:27:35,9/29/2023 5:27:35 PM,3016,1,19,DelayDiscountingTitrated-3016-1,1986132285,1,60.017,"<?xml version=""1.0""?>\n<Clock xmlns:dt=""urn:schemas-microsoft-com:datatypes""><Description dt:dt=""string"">E-Prime Primary Realtime Clock</Description><StartTime><Timestamp dt:dt=""int"">0</Timestamp><DateUtc dt:dt=""string"">2023-09-29T17:27:35Z</DateUtc></StartTime><FrequencyChanges><FrequencyChange><Frequency dt:dt=""r8"">10000000</Frequency><Timestamp dt:dt=""r8"">15678614769531</Timestamp><Current dt:dt=""r8"">0</Current><DateUtc dt:dt=""string"">2023-09-29T17:27:35Z</DateUtc></FrequencyChange></FrequencyChanges></Clock>\n",2.0.10.252,2.0.10.356,2.0.10.356,Professional,1.0.0.6
Proc4,,List12,,,,,,,122,3,118,118,841,3,0,,4,,,,,,,,,,,,,,,,,7,1,7,,,,,,,,,,,,,,,,,,,,,,DelayDiscountingTitrated,09-29-2023,13:27:35,9/29/2023 5:27:35 PM,3016,1,19,DelayDiscountingTitrated-3016-1,1986132285,1,60.017,"<?xml version=""1.0""?>\n<Clock xmlns:dt=""urn:schemas-microsoft-com:datatypes""><Description dt:dt=""string"">E-Prime Primary Realtime Clock</Description><StartTime><Timestamp dt:dt=""int"">0</Timestamp><DateUtc dt:dt=""string"">2023-09-29T17:27:35Z</DateUtc></StartTime><FrequencyChanges><FrequencyChange><Frequency dt:dt=""r8"">10000000</Frequency><Timestamp dt:dt=""r8"">15678614769531</Timestamp><Current dt:dt=""r8"">0</Current><DateUtc dt:dt=""string"">2023-09-29T17:27:35Z</DateUtc></FrequencyChange></FrequencyChanges></Clock>\n",2.0.10.252,2.0.10.356,2.0.10.356,Professional,1.0.0.6
Proc4,,List12,,,,,,,124,3,122,122,879,3,0,,2,,,,,,,,,,,,,,,,,8,1,8,,,,,,,,,,,,,,,,,,,,,,DelayDiscountingTitrated,09-29-2023,13:27:35,9/29/2023 5:27:35 PM,3016,1,19,DelayDiscountingTitrated-3016-1,1986132285,1,60.017,"<?xml version=""1.0""?>\n<Clock xmlns:dt=""urn:schemas-microsoft-com:datatypes""><Description dt:dt=""string"">E-Prime Primary Realtime Clock</Description><StartTime><Timestamp dt:dt=""int"">0</Timestamp><DateUtc dt:dt=""string"">2023-09-29T17:27:35Z</DateUtc></StartTime><FrequencyChanges><FrequencyChange><Frequency dt:dt=""r8"">10000000</Frequency><Timestamp dt:dt=""r8"">15678614769531</Timestamp><Current dt:dt=""r8"">0</Current><DateUtc dt:dt=""string"">2023-09-29T17:27:35Z</DateUtc></FrequencyChange></FrequencyChanges></Clock>\n",2.0.10.252,2.0.10.356,2.0.10.356,Professional,1.0.0.6
Proc4,,List12,,,,,,,125,3,124,124,1170,3,0,,1,,,,,,,,,,,,,,,,,9,1,9,,,,,,,,,,,,,,,,,,,,,,DelayDiscountingTitrated,09-29-2023,13:27:35,9/29/2023 5:27:35 PM,3016,1,19,DelayDiscountingTitrated-3016-1,1986132285,1,60.017,"<?xml version=""1.0""?>\n<Clock xmlns:dt=""urn:schemas-microsoft-com:datatypes""><Description dt:dt=""string"">E-Prime Primary Realtime Clock</Description><StartTime><Timestamp dt:dt=""int"">0</Timestamp><DateUtc dt:dt=""string"">2023-09-29T17:27:35Z</DateUtc></StartTime><FrequencyChanges><FrequencyChange><Frequency dt:dt=""r8"">10000000</Frequency><Timestamp dt:dt=""r8"">15678614769531</Timestamp><Current dt:dt=""r8"">0</Current><DateUtc dt:dt=""string"">2023-09-29T17:27:35Z</DateUtc></FrequencyChange></FrequencyChanges></Clock>\n",2.0.10.252,2.0.10.356,2.0.10.356,Professional,1.0.0.6
Proc4,,List12,,,,,,,125,3,124,125,642,3,0,,,,,,,,,,,,,,,,,,,10,1,10,,,,,,,,,,,,,,,,,,,,,,DelayDiscountingTitrated,09-29-2023,13:27:35,9/29/2023 5:27:35 PM,3016,1,19,DelayDiscountingTitrated-3016-1,1986132285,1,60.017,"<?xml version=""1.0""?>\n<Clock xmlns:dt=""urn:schemas-microsoft-com:datatypes""><Description dt:dt=""string"">E-Prime Primary Realtime Clock</Description><StartTime><Timestamp dt:dt=""int"">0</Timestamp><DateUtc dt:dt=""string"">2023-09-29T17:27:35Z</DateUtc></StartTime><FrequencyChanges><FrequencyChange><Frequency dt:dt=""r8"">10000000</Frequency><Timestamp dt:dt=""r8"">15678614769531</Timestamp><Current dt:dt=""r8"">0</Current><DateUtc dt:dt=""string"">2023-09-29T17:27:35Z</DateUtc></FrequencyChange></FrequencyChanges></Clock>\n",2.0.10.252,2.0.10.356,2.0.10.356,Professional,1.0.0.6
discount4,,List7,,,,,,,,,,,,,,,,500,5 years,1825,,,,,,,,,,,,,,,,,2,1,1,,,,,,,,,,,,,,,,,,,DelayDiscountingTitrated,09-29-2023,13:27:35,9/29/2023 5:27:35 PM,3016,1,19,DelayDiscountingTitrated-3016-1,1986132285,1,60.017,"<?xml version=""1.0""?>\n<Clock xmlns:dt=""urn:schemas-microsoft-com:datatypes""><Description dt:dt=""string"">E-Prime Primary Realtime Clock</Description><StartTime><Timestamp dt:dt=""int"">0</Timestamp><DateUtc dt:dt=""string"">2023-09-29T17:27:35Z</DateUtc></StartTime><FrequencyChanges><FrequencyChange><Frequency dt:dt=""r8"">10000000</Frequency><Timestamp dt:dt=""r8"">15678614769531</Timestamp><Current dt:dt=""r8"">0</Current><DateUtc dt:dt=""string"">2023-09-29T17:27:35Z</DateUtc></FrequencyChange></FrequencyChanges></Clock>\n",2.0.10.252,2.0.10.356,2.0.10.356,Professional,1.0.0.6
fiveyearproc,,List1,,,,,,,,,,,,,,,,,,,,,,5,1,3,3,,,,,,,,,,,,,,,,,,,,,,,,,,,,,,,DelayDiscountingTitrated,09-29-2023,13:27:35,9/29/2023 5:27:35 PM,3016,1,19,DelayDiscountingTitrated-3016-1,1986132285,1,60.017,"<?xml version=""1.0""?>\n<Clock xmlns:dt=""urn:schemas-microsoft-com:datatypes""><Description dt:dt=""string"">E-Prime Primary Realtime Clock</Description><StartTime><Timestamp dt:dt=""int"">0</Timestamp><DateUtc dt:dt=""string"">2023-09-29T17:27:35Z</DateUtc></StartTime><FrequencyChanges><FrequencyChange><Frequency dt:dt=""r8"">10000000</Frequency><Timestamp dt:dt=""r8"">15678614769531</Timestamp><Current dt:dt=""r8"">0</Current><DateUtc dt:dt=""string"">2023-09-29T17:27:35Z</DateUtc></FrequencyChange></FrequencyChanges></Clock>\n",2.0.10.252,2.0.10.356,2.0.10.356,Professional,1.0.0.6
Init3,,List11,,,2784,1,0,,250,1,500,,,,,,,,,,,,,,,,,,,,,,,,,,,,,1,1,1,,,,,,,,,,,,,,,,DelayDiscountingTitrated,09-29-2023,13:27:35,9/29/2023 5:27:35 PM,3016,1,19,DelayDiscountingTitrated-3016-1,1986132285,1,60.017,"<?xml version=""1.0""?>\n<Clock xmlns:dt=""urn:schemas-microsoft-com:datatypes""><Description dt:dt=""string"">E-Prime Primary Realtime Clock</Description><StartTime><Timestamp dt:dt=""int"">0</Timestamp><DateUtc dt:dt=""string"">2023-09-29T17:27:35Z</DateUtc></StartTime><FrequencyChanges><FrequencyChange><Frequency dt:dt=""r8"">10000000</Frequency><Timestamp dt:dt=""r8"">15678614769531</Timestamp><Current dt:dt=""r8"">0</Current><DateUtc dt:dt=""string"">2023-09-29T17:27:35Z</DateUtc></FrequencyChange></FrequencyChanges></Clock>\n",2.0.10.252,2.0.10.356,2.0.10.356,Professional,1.0.0.6
Proc3,,List11,,,,,,,125,1,250,250,1615,1,0,,125,,,,,,,,,,,,,,,,,,,,,,,2,1,2,,,,,,,,,,,,,,,,DelayDiscountingTitrated,09-29-2023,13:27:35,9/29/2023 5:27:35 PM,3016,1,19,DelayDiscountingTitrated-3016-1,1986132285,1,60.017,"<?xml version=""1.0""?>\n<Clock xmlns:dt=""urn:schemas-microsoft-com:datatypes""><Description dt:dt=""string"">E-Prime Primary Realtime Clock</Description><StartTime><Timestamp dt:dt=""int"">0</Timestamp><DateUtc dt:dt=""string"">2023-09-29T17:27:35Z</DateUtc></StartTime><FrequencyChanges><FrequencyChange><Frequency dt:dt=""r8"">10000000</Frequency><Timestamp dt:dt=""r8"">15678614769531</Timestamp><Current dt:dt=""r8"">0</Current><DateUtc dt:dt=""string"">2023-09-29T17:27:35Z</DateUtc></FrequencyChange></FrequencyChanges></Clock>\n",2.0.10.252,2.0.10.356,2.0.10.356,Professional,1.0.0.6
Proc3,,List11,,,,,,,63,1,125,125,1942,1,0,,62,,,,,,,,,,,,,,,,,,,,,,,3,1,3,,,,,,,,,,,,,,,,DelayDiscountingTitrated,09-29-2023,13:27:35,9/29/2023 5:27:35 PM,3016,1,19,DelayDiscountingTitrated-3016-1,1986132285,1,60.017,"<?xml version=""1.0""?>\n<Clock xmlns:dt=""urn:schemas-microsoft-com:datatypes""><Description dt:dt=""string"">E-Prime Primary Realtime Clock</Description><StartTime><Timestamp dt:dt=""int"">0</Timestamp><DateUtc dt:dt=""string"">2023-09-29T17:27:35Z</DateUtc></StartTime><FrequencyChanges><FrequencyChange><Frequency dt:dt=""r8"">10000000</Frequency><Timestamp dt:dt=""r8"">15678614769531</Timestamp><Current dt:dt=""r8"">0</Current><DateUtc dt:dt=""string"">2023-09-29T17:27:35Z</DateUtc></FrequencyChange></FrequencyChanges></Clock>\n",2.0.10.252,2.0.10.356,2.0.10.356,Professional,1.0.0.6
Proc3,,List11,,,,,,,94,3,63,63,847,3,0,,31,,,,,,,,,,,,,,,,,,,,,,,4,1,4,,,,,,,,,,,,,,,,DelayDiscountingTitrated,09-29-2023,13:27:35,9/29/2023 5:27:35 PM,3016,1,19,DelayDiscountingTitrated-3016-1,1986132285,1,60.017,"<?xml version=""1.0""?>\n<Clock xmlns:dt=""urn:schemas-microsoft-com:datatypes""><Description dt:dt=""string"">E-Prime Primary Realtime Clock</Description><StartTime><Timestamp dt:dt=""int"">0</Timestamp><DateUtc dt:dt=""string"">2023-09-29T17:27:35Z</DateUtc></StartTime><FrequencyChanges><FrequencyChange><Frequency dt:dt=""r8"">10000000</Frequency><Timestamp dt:dt=""r8"">15678614769531</Timestamp><Current dt:dt=""r8"">0</Current><DateUtc dt:dt=""string"">2023-09-29T17:27:35Z</DateUtc></FrequencyChange></FrequencyChanges></Clock>\n",2.0.10.252,2.0.10.356,2.0.10.356,Professional,1.0.0.6
Proc3,,List11,,,,,,,110,3,94,94,852,3,0,,16,,,,,,,,,,,,,,,,,,,,,,,5,1,5,,,,,,,,,,,,,,,,DelayDiscountingTitrated,09-29-2023,13:27:35,9/29/2023 5:27:35 PM,3016,1,19,DelayDiscountingTitrated-3016-1,1986132285,1,60.017,"<?xml version=""1.0""?>\n<Clock xmlns:dt=""urn:schemas-microsoft-com:datatypes""><Description dt:dt=""string"">E-Prime Primary Realtime Clock</Description><StartTime><Timestamp dt:dt=""int"">0</Timestamp><DateUtc dt:dt=""string"">2023-09-29T17:27:35Z</DateUtc></StartTime><FrequencyChanges><FrequencyChange><Frequency dt:dt=""r8"">10000000</Frequency><Timestamp dt:dt=""r8"">15678614769531</Timestamp><Current dt:dt=""r8"">0</Current><DateUtc dt:dt=""string"">2023-09-29T17:27:35Z</DateUtc></FrequencyChange></FrequencyChanges></Clock>\n",2.0.10.252,2.0.10.356,2.0.10.356,Professional,1.0.0.6
Proc3,,List11,,,,,,,118,3,110,110,792,3,0,,8,,,,,,,,,,,,,,,,,,,,,,,6,1,6,,,,,,,,,,,,,,,,DelayDiscountingTitrated,09-29-2023,13:27:35,9/29/2023 5:27:35 PM,3016,1,19,DelayDiscountingTitrated-3016-1,1986132285,1,60.017,"<?xml version=""1.0""?>\n<Clock xmlns:dt=""urn:schemas-microsoft-com:datatypes""><Description dt:dt=""string"">E-Prime Primary Realtime Clock</Description><StartTime><Timestamp dt:dt=""int"">0</Timestamp><DateUtc dt:dt=""string"">2023-09-29T17:27:35Z</DateUtc></StartTime><FrequencyChanges><FrequencyChange><Frequency dt:dt=""r8"">10000000</Frequency><Timestamp dt:dt=""r8"">15678614769531</Timestamp><Current dt:dt=""r8"">0</Current><DateUtc dt:dt=""string"">2023-09-29T17:27:35Z</DateUtc></FrequencyChange></FrequencyChanges></Clock>\n",2.0.10.252,2.0.10.356,2.0.10.356,Professional,1.0.0.6
Proc3,,List11,,,,,,,122,3,118,118,896,3,0,,4,,,,,,,,,,,,,,,,,,,,,,,7,1,7,,,,,,,,,,,,,,,,DelayDiscountingTitrated,09-29-2023,13:27:35,9/29/2023 5:27:35 PM,3016,1,19,DelayDiscountingTitrated-3016-1,1986132285,1,60.017,"<?xml version=""1.0""?>\n<Clock xmlns:dt=""urn:schemas-microsoft-com:datatypes""><Description dt:dt=""string"">E-Prime Primary Realtime Clock</Description><StartTime><Timestamp dt:dt=""int"">0</Timestamp><DateUtc dt:dt=""string"">2023-09-29T17:27:35Z</DateUtc></StartTime><FrequencyChanges><FrequencyChange><Frequency dt:dt=""r8"">10000000</Frequency><Timestamp dt:dt=""r8"">15678614769531</Timestamp><Current dt:dt=""r8"">0</Current><DateUtc dt:dt=""string"">2023-09-29T17:27:35Z</DateUtc></FrequencyChange></FrequencyChanges></Clock>\n",2.0.10.252,2.0.10.356,2.0.10.356,Professional,1.0.0.6
Proc3,,List11,,,,,,,124,3,122,122,994,3,0,,2,,,,,,,,,,,,,,,,,,,,,,,8,1,8,,,,,,,,,,,,,,,,DelayDiscountingTitrated,09-29-2023,13:27:35,9/29/2023 5:27:35 PM,3016,1,19,DelayDiscountingTitrated-3016-1,1986132285,1,60.017,"<?xml version=""1.0""?>\n<Clock xmlns:dt=""urn:schemas-microsoft-com:datatypes""><Description dt:dt=""string"">E-Prime Primary Realtime Clock</Description><StartTime><Timestamp dt:dt=""int"">0</Timestamp><DateUtc dt:dt=""string"">2023-09-29T17:27:35Z</DateUtc></StartTime><FrequencyChanges><FrequencyChange><Frequency dt:dt=""r8"">10000000</Frequency><Timestamp dt:dt=""r8"">15678614769531</Timestamp><Current dt:dt=""r8"">0</Current><DateUtc dt:dt=""string"">2023-09-29T17:27:35Z</DateUtc></FrequencyChange></FrequencyChanges></Clock>\n",2.0.10.252,2.0.10.356,2.0.10.356,Professional,1.0.0.6
Proc3,,List11,,,,,,,125,3,124,124,1185,3,0,,1,,,,,,,,,,,,,,,,,,,,,,,9,1,9,,,,,,,,,,,,,,,,DelayDiscountingTitrated,09-29-2023,13:27:35,9/29/2023 5:27:35 PM,3016,1,19,DelayDiscountingTitrated-3016-1,1986132285,1,60.017,"<?xml version=""1.0""?>\n<Clock xmlns:dt=""urn:schemas-microsoft-com:datatypes""><Description dt:dt=""string"">E-Prime Primary Realtime Clock</Description><StartTime><Timestamp dt:dt=""int"">0</Timestamp><DateUtc dt:dt=""string"">2023-09-29T17:27:35Z</DateUtc></StartTime><FrequencyChanges><FrequencyChange><Frequency dt:dt=""r8"">10000000</Frequency><Timestamp dt:dt=""r8"">15678614769531</Timestamp><Current dt:dt=""r8"">0</Current><DateUtc dt:dt=""string"">2023-09-29T17:27:35Z</DateUtc></FrequencyChange></FrequencyChanges></Clock>\n",2.0.10.252,2.0.10.356,2.0.10.356,Professional,1.0.0.6
Proc3,,List11,,,,,,,125,3,124,125,520,3,0,,,,,,,,,,,,,,,,,,,,,,,,,10,1,10,,,,,,,,,,,,,,,,DelayDiscountingTitrated,09-29-2023,13:27:35,9/29/2023 5:27:35 PM,3016,1,19,DelayDiscountingTitrated-3016-1,1986132285,1,60.017,"<?xml version=""1.0""?>\n<Clock xmlns:dt=""urn:schemas-microsoft-com:datatypes""><Description dt:dt=""string"">E-Prime Primary Realtime Clock</Description><StartTime><Timestamp dt:dt=""int"">0</Timestamp><DateUtc dt:dt=""string"">2023-09-29T17:27:35Z</DateUtc></StartTime><FrequencyChanges><FrequencyChange><Frequency dt:dt=""r8"">10000000</Frequency><Timestamp dt:dt=""r8"">15678614769531</Timestamp><Current dt:dt=""r8"">0</Current><DateUtc dt:dt=""string"">2023-09-29T17:27:35Z</DateUtc></FrequencyChange></FrequencyChanges></Clock>\n",2.0.10.252,2.0.10.356,2.0.10.356,Professional,1.0.0.6
discount3,,List6,,,,,,,,,,,,,,,,500,1 year,365,,,,,,,,,,,,,,,,,,,,,,,2,1,1,,,,,,,,,,,,,DelayDiscountingTitrated,09-29-2023,13:27:35,9/29/2023 5:27:35 PM,3016,1,19,DelayDiscountingTitrated-3016-1,1986132285,1,60.017,"<?xml version=""1.0""?>\n<Clock xmlns:dt=""urn:schemas-microsoft-com:datatypes""><Description dt:dt=""string"">E-Prime Primary Realtime Clock</Description><StartTime><Timestamp dt:dt=""int"">0</Timestamp><DateUtc dt:dt=""string"">2023-09-29T17:27:35Z</DateUtc></StartTime><FrequencyChanges><FrequencyChange><Frequency dt:dt=""r8"">10000000</Frequency><Timestamp dt:dt=""r8"">15678614769531</Timestamp><Current dt:dt=""r8"">0</Current><DateUtc dt:dt=""string"">2023-09-29T17:27:35Z</DateUtc></FrequencyChange></FrequencyChanges></Clock>\n",2.0.10.252,2.0.10.356,2.0.10.356,Professional,1.0.0.6
oneyearproc,,List1,,,,,,,,,,,,,,,,,,,,,,4,1,4,4,,,,,,,,,,,,,,,,,,,,,,,,,,,,,,,DelayDiscountingTitrated,09-29-2023,13:27:35,9/29/2023 5:27:35 PM,3016,1,19,DelayDiscountingTitrated-3016-1,1986132285,1,60.017,"<?xml version=""1.0""?>\n<Clock xmlns:dt=""urn:schemas-microsoft-com:datatypes""><Description dt:dt=""string"">E-Prime Primary Realtime Clock</Description><StartTime><Timestamp dt:dt=""int"">0</Timestamp><DateUtc dt:dt=""string"">2023-09-29T17:27:35Z</DateUtc></StartTime><FrequencyChanges><FrequencyChange><Frequency dt:dt=""r8"">10000000</Frequency><Timestamp dt:dt=""r8"">15678614769531</Timestamp><Current dt:dt=""r8"">0</Current><DateUtc dt:dt=""string"">2023-09-29T17:27:35Z</DateUtc></FrequencyChange></FrequencyChanges></Clock>\n",2.0.10.252,2.0.10.356,2.0.10.356,Professional,1.0.0.6
TrialProcInit,,List2,,,18971,1,0,,400,1,800,,,,,,,,,,,,,,,,,,,,,,,,,,,,,,,,,,,1,1,1,,,,,,,,,,DelayDiscountingTitrated,09-29-2023,13:27:35,9/29/2023 5:27:35 PM,3016,1,19,DelayDiscountingTitrated-3016-1,1986132285,1,60.017,"<?xml version=""1.0""?>\n<Clock xmlns:dt=""urn:schemas-microsoft-com:datatypes""><Description dt:dt=""string"">E-Prime Primary Realtime Clock</Description><StartTime><Timestamp dt:dt=""int"">0</Timestamp><DateUtc dt:dt=""string"">2023-09-29T17:27:35Z</DateUtc></StartTime><FrequencyChanges><FrequencyChange><Frequency dt:dt=""r8"">10000000</Frequency><Timestamp dt:dt=""r8"">15678614769531</Timestamp><Current dt:dt=""r8"">0</Current><DateUtc dt:dt=""string"">2023-09-29T17:27:35Z</DateUtc></FrequencyChange></FrequencyChanges></Clock>\n",2.0.10.252,2.0.10.356,2.0.10.356,Professional,1.0.0.6
TrialProc,,List2,,,,,,,600,3,400,400,1328,3,0,,200,,,,,,,,,,,,,,,,,,,,,,,,,,,,,2,1,2,,,,,,,,,,DelayDiscountingTitrated,09-29-2023,13:27:35,9/29/2023 5:27:35 PM,3016,1,19,DelayDiscountingTitrated-3016-1,1986132285,1,60.017,"<?xml version=""1.0""?>\n<Clock xmlns:dt=""urn:schemas-microsoft-com:datatypes""><Description dt:dt=""string"">E-Prime Primary Realtime Clock</Description><StartTime><Timestamp dt:dt=""int"">0</Timestamp><DateUtc dt:dt=""string"">2023-09-29T17:27:35Z</DateUtc></StartTime><FrequencyChanges><FrequencyChange><Frequency dt:dt=""r8"">10000000</Frequency><Timestamp dt:dt=""r8"">15678614769531</Timestamp><Current dt:dt=""r8"">0</Current><DateUtc dt:dt=""string"">2023-09-29T17:27:35Z</DateUtc></FrequencyChange></FrequencyChanges></Clock>\n",2.0.10.252,2.0.10.356,2.0.10.356,Professional,1.0.0.6
TrialProc,,List2,,,,,,,500,1,600,600,1289,1,0,,100,,,,,,,,,,,,,,,,,,,,,,,,,,,,,3,1,3,,,,,,,,,,DelayDiscountingTitrated,09-29-2023,13:27:35,9/29/2023 5:27:35 PM,3016,1,19,DelayDiscountingTitrated-3016-1,1986132285,1,60.017,"<?xml version=""1.0""?>\n<Clock xmlns:dt=""urn:schemas-microsoft-com:datatypes""><Description dt:dt=""string"">E-Prime Primary Realtime Clock</Description><StartTime><Timestamp dt:dt=""int"">0</Timestamp><DateUtc dt:dt=""string"">2023-09-29T17:27:35Z</DateUtc></StartTime><FrequencyChanges><FrequencyChange><Frequency dt:dt=""r8"">10000000</Frequency><Timestamp dt:dt=""r8"">15678614769531</Timestamp><Current dt:dt=""r8"">0</Current><DateUtc dt:dt=""string"">2023-09-29T17:27:35Z</DateUtc></FrequencyChange></FrequencyChanges></Clock>\n",2.0.10.252,2.0.10.356,2.0.10.356,Professional,1.0.0.6
TrialProc,,List2,,,,,,,450,1,500,500,1172,1,0,,50,,,,,,,,,,,,,,,,,,,,,,,,,,,,,4,1,4,,,,,,,,,,DelayDiscountingTitrated,09-29-2023,13:27:35,9/29/2023 5:27:35 PM,3016,1,19,DelayDiscountingTitrated-3016-1,1986132285,1,60.017,"<?xml version=""1.0""?>\n<Clock xmlns:dt=""urn:schemas-microsoft-com:datatypes""><Description dt:dt=""string"">E-Prime Primary Realtime Clock</Description><StartTime><Timestamp dt:dt=""int"">0</Timestamp><DateUtc dt:dt=""string"">2023-09-29T17:27:35Z</DateUtc></StartTime><FrequencyChanges><FrequencyChange><Frequency dt:dt=""r8"">10000000</Frequency><Timestamp dt:dt=""r8"">15678614769531</Timestamp><Current dt:dt=""r8"">0</Current><DateUtc dt:dt=""string"">2023-09-29T17:27:35Z</DateUtc></FrequencyChange></FrequencyChanges></Clock>\n",2.0.10.252,2.0.10.356,2.0.10.356,Professional,1.0.0.6
TrialProc,,List2,,,,,,,475,3,450,450,837,3,0,,25,,,,,,,,,,,,,,,,,,,,,,,,,,,,,5,1,5,,,,,,,,,,DelayDiscountingTitrated,09-29-2023,13:27:35,9/29/2023 5:27:35 PM,3016,1,19,DelayDiscountingTitrated-3016-1,1986132285,1,60.017,"<?xml version=""1.0""?>\n<Clock xmlns:dt=""urn:schemas-microsoft-com:datatypes""><Description dt:dt=""string"">E-Prime Primary Realtime Clock</Description><StartTime><Timestamp dt:dt=""int"">0</Timestamp><DateUtc dt:dt=""string"">2023-09-29T17:27:35Z</DateUtc></StartTime><FrequencyChanges><FrequencyChange><Frequency dt:dt=""r8"">10000000</Frequency><Timestamp dt:dt=""r8"">15678614769531</Timestamp><Current dt:dt=""r8"">0</Current><DateUtc dt:dt=""string"">2023-09-29T17:27:35Z</DateUtc></FrequencyChange></FrequencyChanges></Clock>\n",2.0.10.252,2.0.10.356,2.0.10.356,Professional,1.0.0.6
TrialProc,,List2,,,,,,,487,3,475,475,1010,3,0,,12,,,,,,,,,,,,,,,,,,,,,,,,,,,,,6,1,6,,,,,,,,,,DelayDiscountingTitrated,09-29-2023,13:27:35,9/29/2023 5:27:35 PM,3016,1,19,DelayDiscountingTitrated-3016-1,1986132285,1,60.017,"<?xml version=""1.0""?>\n<Clock xmlns:dt=""urn:schemas-microsoft-com:datatypes""><Description dt:dt=""string"">E-Prime Primary Realtime Clock</Description><StartTime><Timestamp dt:dt=""int"">0</Timestamp><DateUtc dt:dt=""string"">2023-09-29T17:27:35Z</DateUtc></StartTime><FrequencyChanges><FrequencyChange><Frequency dt:dt=""r8"">10000000</Frequency><Timestamp dt:dt=""r8"">15678614769531</Timestamp><Current dt:dt=""r8"">0</Current><DateUtc dt:dt=""string"">2023-09-29T17:27:35Z</DateUtc></FrequencyChange></FrequencyChanges></Clock>\n",2.0.10.252,2.0.10.356,2.0.10.356,Professional,1.0.0.6
TrialProc,,List2,,,,,,,493,3,487,487,960,3,0,,6,,,,,,,,,,,,,,,,,,,,,,,,,,,,,7,1,7,,,,,,,,,,DelayDiscountingTitrated,09-29-2023,13:27:35,9/29/2023 5:27:35 PM,3016,1,19,DelayDiscountingTitrated-3016-1,1986132285,1,60.017,"<?xml version=""1.0""?>\n<Clock xmlns:dt=""urn:schemas-microsoft-com:datatypes""><Description dt:dt=""string"">E-Prime Primary Realtime Clock</Description><StartTime><Timestamp dt:dt=""int"">0</Timestamp><DateUtc dt:dt=""string"">2023-09-29T17:27:35Z</DateUtc></StartTime><FrequencyChanges><FrequencyChange><Frequency dt:dt=""r8"">10000000</Frequency><Timestamp dt:dt=""r8"">15678614769531</Timestamp><Current dt:dt=""r8"">0</Current><DateUtc dt:dt=""string"">2023-09-29T17:27:35Z</DateUtc></FrequencyChange></FrequencyChanges></Clock>\n",2.0.10.252,2.0.10.356,2.0.10.356,Professional,1.0.0.6
TrialProc,,List2,,,,,,,496,3,493,493,936,3,0,,3,,,,,,,,,,,,,,,,,,,,,,,,,,,,,8,1,8,,,,,,,,,,DelayDiscountingTitrated,09-29-2023,13:27:35,9/29/2023 5:27:35 PM,3016,1,19,DelayDiscountingTitrated-3016-1,1986132285,1,60.017,"<?xml version=""1.0""?>\n<Clock xmlns:dt=""urn:schemas-microsoft-com:datatypes""><Description dt:dt=""string"">E-Prime Primary Realtime Clock</Description><StartTime><Timestamp dt:dt=""int"">0</Timestamp><DateUtc dt:dt=""string"">2023-09-29T17:27:35Z</DateUtc></StartTime><FrequencyChanges><FrequencyChange><Frequency dt:dt=""r8"">10000000</Frequency><Timestamp dt:dt=""r8"">15678614769531</Timestamp><Current dt:dt=""r8"">0</Current><DateUtc dt:dt=""string"">2023-09-29T17:27:35Z</DateUtc></FrequencyChange></FrequencyChanges></Clock>\n",2.0.10.252,2.0.10.356,2.0.10.356,Professional,1.0.0.6
TrialProc,,List2,,,,,,,498,3,496,496,810,3,0,,2,,,,,,,,,,,,,,,,,,,,,,,,,,,,,9,1,9,,,,,,,,,,DelayDiscountingTitrated,09-29-2023,13:27:35,9/29/2023 5:27:35 PM,3016,1,19,DelayDiscountingTitrated-3016-1,1986132285,1,60.017,"<?xml version=""1.0""?>\n<Clock xmlns:dt=""urn:schemas-microsoft-com:datatypes""><Description dt:dt=""string"">E-Prime Primary Realtime Clock</Description><StartTime><Timestamp dt:dt=""int"">0</Timestamp><DateUtc dt:dt=""string"">2023-09-29T17:27:35Z</DateUtc></StartTime><FrequencyChanges><FrequencyChange><Frequency dt:dt=""r8"">10000000</Frequency><Timestamp dt:dt=""r8"">15678614769531</Timestamp><Current dt:dt=""r8"">0</Current><DateUtc dt:dt=""string"">2023-09-29T17:27:35Z</DateUtc></FrequencyChange></FrequencyChanges></Clock>\n",2.0.10.252,2.0.10.356,2.0.10.356,Professional,1.0.0.6
TrialProc,,List2,,,,,,,499,3,498,498,1184,3,0,,1,,,,,,,,,,,,,,,,,,,,,,,,,,,,,10,1,10,,,,,,,,,,DelayDiscountingTitrated,09-29-2023,13:27:35,9/29/2023 5:27:35 PM,3016,1,19,DelayDiscountingTitrated-3016-1,1986132285,1,60.017,"<?xml version=""1.0""?>\n<Clock xmlns:dt=""urn:schemas-microsoft-com:datatypes""><Description dt:dt=""string"">E-Prime Primary Realtime Clock</Description><StartTime><Timestamp dt:dt=""int"">0</Timestamp><DateUtc dt:dt=""string"">2023-09-29T17:27:35Z</DateUtc></StartTime><FrequencyChanges><FrequencyChange><Frequency dt:dt=""r8"">10000000</Frequency><Timestamp dt:dt=""r8"">15678614769531</Timestamp><Current dt:dt=""r8"">0</Current><DateUtc dt:dt=""string"">2023-09-29T17:27:35Z</DateUtc></FrequencyChange></FrequencyChanges></Clock>\n",2.0.10.252,2.0.10.356,2.0.10.356,Professional,1.0.0.6
TrialProc,,List2,,,,,,,499,3,498,499,1224,3,0,,,,,,,,,,,,,,,,,,,,,,,,,,,,,,,11,1,11,,,,,,,,,,DelayDiscountingTitrated,09-29-2023,13:27:35,9/29/2023 5:27:35 PM,3016,1,19,DelayDiscountingTitrated-3016-1,1986132285,1,60.017,"<?xml version=""1.0""?>\n<Clock xmlns:dt=""urn:schemas-microsoft-com:datatypes""><Description dt:dt=""string"">E-Prime Primary Realtime Clock</Description><StartTime><Timestamp dt:dt=""int"">0</Timestamp><DateUtc dt:dt=""string"">2023-09-29T17:27:35Z</DateUtc></StartTime><FrequencyChanges><FrequencyChange><Frequency dt:dt=""r8"">10000000</Frequency><Timestamp dt:dt=""r8"">15678614769531</Timestamp><Current dt:dt=""r8"">0</Current><DateUtc dt:dt=""string"">2023-09-29T17:27:35Z</DateUtc></FrequencyChange></FrequencyChanges></Clock>\n",2.0.10.252,2.0.10.356,2.0.10.356,Professional,1.0.0.6
discount,,List3,,,,,,,,,,,,,,,,800,1 week,7,,,,,,,,,,,,,,,,,,,,,,,,,,,,,3,1,1,,,,,,,DelayDiscountingTitrated,09-29-2023,13:27:35,9/29/2023 5:27:35 PM,3016,1,19,DelayDiscountingTitrated-3016-1,1986132285,1,60.017,"<?xml version=""1.0""?>\n<Clock xmlns:dt=""urn:schemas-microsoft-com:datatypes""><Description dt:dt=""string"">E-Prime Primary Realtime Clock</Description><StartTime><Timestamp dt:dt=""int"">0</Timestamp><DateUtc dt:dt=""string"">2023-09-29T17:27:35Z</DateUtc></StartTime><FrequencyChanges><FrequencyChange><Frequency dt:dt=""r8"">10000000</Frequency><Timestamp dt:dt=""r8"">15678614769531</Timestamp><Current dt:dt=""r8"">0</Current><DateUtc dt:dt=""string"">2023-09-29T17:27:35Z</DateUtc></FrequencyChange></FrequencyChanges></Clock>\n",2.0.10.252,2.0.10.356,2.0.10.356,Professional,1.0.0.6
onewkproc,,List1,,,,,,,,,,,,,,,,,,,,,,1,1,5,5,,,,,,,,,,,,,,,,,,,,,,,,,,,,,,,DelayDiscountingTitrated,09-29-2023,13:27:35,9/29/2023 5:27:35 PM,3016,1,19,DelayDiscountingTitrated-3016-1,1986132285,1,60.017,"<?xml version=""1.0""?>\n<Clock xmlns:dt=""urn:schemas-microsoft-com:datatypes""><Description dt:dt=""string"">E-Prime Primary Realtime Clock</Description><StartTime><Timestamp dt:dt=""int"">0</Timestamp><DateUtc dt:dt=""string"">2023-09-29T17:27:35Z</DateUtc></StartTime><FrequencyChanges><FrequencyChange><Frequency dt:dt=""r8"">10000000</Frequency><Timestamp dt:dt=""r8"">15678614769531</Timestamp><Current dt:dt=""r8"">0</Current><DateUtc dt:dt=""string"">2023-09-29T17:27:35Z</DateUtc></FrequencyChange></FrequencyChanges></Clock>\n",2.0.10.252,2.0.10.356,2.0.10.356,Professional,1.0.0.6
Init2,,List10,,,3649,3,0,,600,3,200,,,,,,,,,,,,,,,,,,,,,,,,,,,,,,,,,,,,,,,,,1,1,1,,,,DelayDiscountingTitrated,09-29-2023,13:27:35,9/29/2023 5:27:35 PM,3016,1,19,DelayDiscountingTitrated-3016-1,1986132285,1,60.017,"<?xml version=""1.0""?>\n<Clock xmlns:dt=""urn:schemas-microsoft-com:datatypes""><Description dt:dt=""string"">E-Prime Primary Realtime Clock</Description><StartTime><Timestamp dt:dt=""int"">0</Timestamp><DateUtc dt:dt=""string"">2023-09-29T17:27:35Z</DateUtc></StartTime><FrequencyChanges><FrequencyChange><Frequency dt:dt=""r8"">10000000</Frequency><Timestamp dt:dt=""r8"">15678614769531</Timestamp><Current dt:dt=""r8"">0</Current><DateUtc dt:dt=""string"">2023-09-29T17:27:35Z</DateUtc></FrequencyChange></FrequencyChanges></Clock>\n",2.0.10.252,2.0.10.356,2.0.10.356,Professional,1.0.0.6
Proc2,,List10,,,,,,,400,1,600,600,1702,1,0,,200,,,,,,,,,,,,,,,,,,,,,,,,,,,,,,,,,,,2,1,2,,,,DelayDiscountingTitrated,09-29-2023,13:27:35,9/29/2023 5:27:35 PM,3016,1,19,DelayDiscountingTitrated-3016-1,1986132285,1,60.017,"<?xml version=""1.0""?>\n<Clock xmlns:dt=""urn:schemas-microsoft-com:datatypes""><Description dt:dt=""string"">E-Prime Primary Realtime Clock</Description><StartTime><Timestamp dt:dt=""int"">0</Timestamp><DateUtc dt:dt=""string"">2023-09-29T17:27:35Z</DateUtc></StartTime><FrequencyChanges><FrequencyChange><Frequency dt:dt=""r8"">10000000</Frequency><Timestamp dt:dt=""r8"">15678614769531</Timestamp><Current dt:dt=""r8"">0</Current><DateUtc dt:dt=""string"">2023-09-29T17:27:35Z</DateUtc></FrequencyChange></FrequencyChanges></Clock>\n",2.0.10.252,2.0.10.356,2.0.10.356,Professional,1.0.0.6
Proc2,,List10,,,,,,,300,1,400,400,1409,1,0,,100,,,,,,,,,,,,,,,,,,,,,,,,,,,,,,,,,,,3,1,3,,,,DelayDiscountingTitrated,09-29-2023,13:27:35,9/29/2023 5:27:35 PM,3016,1,19,DelayDiscountingTitrated-3016-1,1986132285,1,60.017,"<?xml version=""1.0""?>\n<Clock xmlns:dt=""urn:schemas-microsoft-com:datatypes""><Description dt:dt=""string"">E-Prime Primary Realtime Clock</Description><StartTime><Timestamp dt:dt=""int"">0</Timestamp><DateUtc dt:dt=""string"">2023-09-29T17:27:35Z</DateUtc></StartTime><FrequencyChanges><FrequencyChange><Frequency dt:dt=""r8"">10000000</Frequency><Timestamp dt:dt=""r8"">15678614769531</Timestamp><Current dt:dt=""r8"">0</Current><DateUtc dt:dt=""string"">2023-09-29T17:27:35Z</DateUtc></FrequencyChange></FrequencyChanges></Clock>\n",2.0.10.252,2.0.10.356,2.0.10.356,Professional,1.0.0.6
Proc2,,List10,,,,,,,350,3,300,300,696,3,0,,50,,,,,,,,,,,,,,,,,,,,,,,,,,,,,,,,,,,4,1,4,,,,DelayDiscountingTitrated,09-29-2023,13:27:35,9/29/2023 5:27:35 PM,3016,1,19,DelayDiscountingTitrated-3016-1,1986132285,1,60.017,"<?xml version=""1.0""?>\n<Clock xmlns:dt=""urn:schemas-microsoft-com:datatypes""><Description dt:dt=""string"">E-Prime Primary Realtime Clock</Description><StartTime><Timestamp dt:dt=""int"">0</Timestamp><DateUtc dt:dt=""string"">2023-09-29T17:27:35Z</DateUtc></StartTime><FrequencyChanges><FrequencyChange><Frequency dt:dt=""r8"">10000000</Frequency><Timestamp dt:dt=""r8"">15678614769531</Timestamp><Current dt:dt=""r8"">0</Current><DateUtc dt:dt=""string"">2023-09-29T17:27:35Z</DateUtc></FrequencyChange></FrequencyChanges></Clock>\n",2.0.10.252,2.0.10.356,2.0.10.356,Professional,1.0.0.6
Proc2,,List10,,,,,,,375,3,350,350,1714,3,0,,25,,,,,,,,,,,,,,,,,,,,,,,,,,,,,,,,,,,5,1,5,,,,DelayDiscountingTitrated,09-29-2023,13:27:35,9/29/2023 5:27:35 PM,3016,1,19,DelayDiscountingTitrated-3016-1,1986132285,1,60.017,"<?xml version=""1.0""?>\n<Clock xmlns:dt=""urn:schemas-microsoft-com:datatypes""><Description dt:dt=""string"">E-Prime Primary Realtime Clock</Description><StartTime><Timestamp dt:dt=""int"">0</Timestamp><DateUtc dt:dt=""string"">2023-09-29T17:27:35Z</DateUtc></StartTime><FrequencyChanges><FrequencyChange><Frequency dt:dt=""r8"">10000000</Frequency><Timestamp dt:dt=""r8"">15678614769531</Timestamp><Current dt:dt=""r8"">0</Current><DateUtc dt:dt=""string"">2023-09-29T17:27:35Z</DateUtc></FrequencyChange></FrequencyChanges></Clock>\n",2.0.10.252,2.0.10.356,2.0.10.356,Professional,1.0.0.6
Proc2,,List10,,,,,,,387,3,375,375,1053,3,0,,12,,,,,,,,,,,,,,,,,,,,,,,,,,,,,,,,,,,6,1,6,,,,DelayDiscountingTitrated,09-29-2023,13:27:35,9/29/2023 5:27:35 PM,3016,1,19,DelayDiscountingTitrated-3016-1,1986132285,1,60.017,"<?xml version=""1.0""?>\n<Clock xmlns:dt=""urn:schemas-microsoft-com:datatypes""><Description dt:dt=""string"">E-Prime Primary Realtime Clock</Description><StartTime><Timestamp dt:dt=""int"">0</Timestamp><DateUtc dt:dt=""string"">2023-09-29T17:27:35Z</DateUtc></StartTime><FrequencyChanges><FrequencyChange><Frequency dt:dt=""r8"">10000000</Frequency><Timestamp dt:dt=""r8"">15678614769531</Timestamp><Current dt:dt=""r8"">0</Current><DateUtc dt:dt=""string"">2023-09-29T17:27:35Z</DateUtc></FrequencyChange></FrequencyChanges></Clock>\n",2.0.10.252,2.0.10.356,2.0.10.356,Professional,1.0.0.6
Proc2,,List10,,,,,,,393,3,387,387,1041,3,0,,6,,,,,,,,,,,,,,,,,,,,,,,,,,,,,,,,,,,7,1,7,,,,DelayDiscountingTitrated,09-29-2023,13:27:35,9/29/2023 5:27:35 PM,3016,1,19,DelayDiscountingTitrated-3016-1,1986132285,1,60.017,"<?xml version=""1.0""?>\n<Clock xmlns:dt=""urn:schemas-microsoft-com:datatypes""><Description dt:dt=""string"">E-Prime Primary Realtime Clock</Description><StartTime><Timestamp dt:dt=""int"">0</Timestamp><DateUtc dt:dt=""string"">2023-09-29T17:27:35Z</DateUtc></StartTime><FrequencyChanges><FrequencyChange><Frequency dt:dt=""r8"">10000000</Frequency><Timestamp dt:dt=""r8"">15678614769531</Timestamp><Current dt:dt=""r8"">0</Current><DateUtc dt:dt=""string"">2023-09-29T17:27:35Z</DateUtc></FrequencyChange></FrequencyChanges></Clock>\n",2.0.10.252,2.0.10.356,2.0.10.356,Professional,1.0.0.6
Proc2,,List10,,,,,,,396,3,393,393,783,3,0,,3,,,,,,,,,,,,,,,,,,,,,,,,,,,,,,,,,,,8,1,8,,,,DelayDiscountingTitrated,09-29-2023,13:27:35,9/29/2023 5:27:35 PM,3016,1,19,DelayDiscountingTitrated-3016-1,1986132285,1,60.017,"<?xml version=""1.0""?>\n<Clock xmlns:dt=""urn:schemas-microsoft-com:datatypes""><Description dt:dt=""string"">E-Prime Primary Realtime Clock</Description><StartTime><Timestamp dt:dt=""int"">0</Timestamp><DateUtc dt:dt=""string"">2023-09-29T17:27:35Z</DateUtc></StartTime><FrequencyChanges><FrequencyChange><Frequency dt:dt=""r8"">10000000</Frequency><Timestamp dt:dt=""r8"">15678614769531</Timestamp><Current dt:dt=""r8"">0</Current><DateUtc dt:dt=""string"">2023-09-29T17:27:35Z</DateUtc></FrequencyChange></FrequencyChanges></Clock>\n",2.0.10.252,2.0.10.356,2.0.10.356,Professional,1.0.0.6
Proc2,,List10,,,,,,,398,3,396,396,782,3,0,,2,,,,,,,,,,,,,,,,,,,,,,,,,,,,,,,,,,,9,1,9,,,,DelayDiscountingTitrated,09-29-2023,13:27:35,9/29/2023 5:27:35 PM,3016,1,19,DelayDiscountingTitrated-3016-1,1986132285,1,60.017,"<?xml version=""1.0""?>\n<Clock xmlns:dt=""urn:schemas-microsoft-com:datatypes""><Description dt:dt=""string"">E-Prime Primary Realtime Clock</Description><StartTime><Timestamp dt:dt=""int"">0</Timestamp><DateUtc dt:dt=""string"">2023-09-29T17:27:35Z</DateUtc></StartTime><FrequencyChanges><FrequencyChange><Frequency dt:dt=""r8"">10000000</Frequency><Timestamp dt:dt=""r8"">15678614769531</Timestamp><Current dt:dt=""r8"">0</Current><DateUtc dt:dt=""string"">2023-09-29T17:27:35Z</DateUtc></FrequencyChange></FrequencyChanges></Clock>\n",2.0.10.252,2.0.10.356,2.0.10.356,Professional,1.0.0.6
Proc2,,List10,,,,,,,399,3,398,398,389,3,0,,1,,,,,,,,,,,,,,,,,,,,,,,,,,,,,,,,,,,10,1,10,,,,DelayDiscountingTitrated,09-29-2023,13:27:35,9/29/2023 5:27:35 PM,3016,1,19,DelayDiscountingTitrated-3016-1,1986132285,1,60.017,"<?xml version=""1.0""?>\n<Clock xmlns:dt=""urn:schemas-microsoft-com:datatypes""><Description dt:dt=""string"">E-Prime Primary Realtime Clock</Description><StartTime><Timestamp dt:dt=""int"">0</Timestamp><DateUtc dt:dt=""string"">2023-09-29T17:27:35Z</DateUtc></StartTime><FrequencyChanges><FrequencyChange><Frequency dt:dt=""r8"">10000000</Frequency><Timestamp dt:dt=""r8"">15678614769531</Timestamp><Current dt:dt=""r8"">0</Current><DateUtc dt:dt=""string"">2023-09-29T17:27:35Z</DateUtc></FrequencyChange></FrequencyChanges></Clock>\n",2.0.10.252,2.0.10.356,2.0.10.356,Professional,1.0.0.6
Proc2,,List10,,,,,,,399,3,398,399,1020,3,0,,,,,,,,,,,,,,,,,,,,,,,,,,,,,,,,,,,,,11,1,11,,,,DelayDiscountingTitrated,09-29-2023,13:27:35,9/29/2023 5:27:35 PM,3016,1,19,DelayDiscountingTitrated-3016-1,1986132285,1,60.017,"<?xml version=""1.0""?>\n<Clock xmlns:dt=""urn:schemas-microsoft-com:datatypes""><Description dt:dt=""string"">E-Prime Primary Realtime Clock</Description><StartTime><Timestamp dt:dt=""int"">0</Timestamp><DateUtc dt:dt=""string"">2023-09-29T17:27:35Z</DateUtc></StartTime><FrequencyChanges><FrequencyChange><Frequency dt:dt=""r8"">10000000</Frequency><Timestamp dt:dt=""r8"">15678614769531</Timestamp><Current dt:dt=""r8"">0</Current><DateUtc dt:dt=""string"">2023-09-29T17:27:35Z</DateUtc></FrequencyChange></FrequencyChanges></Clock>\n",2.0.10.252,2.0.10.356,2.0.10.356,Professional,1.0.0.6
discount2,,List5,,,,,,,,,,,,,,,,200,6 month,180,,,,,,,,,,,,,,,,,,,,,,,,,,,,,,,,,,,1,1,1,DelayDiscountingTitrated,09-29-2023,13:27:35,9/29/2023 5:27:35 PM,3016,1,19,DelayDiscountingTitrated-3016-1,1986132285,1,60.017,"<?xml version=""1.0""?>\n<Clock xmlns:dt=""urn:schemas-microsoft-com:datatypes""><Description dt:dt=""string"">E-Prime Primary Realtime Clock</Description><StartTime><Timestamp dt:dt=""int"">0</Timestamp><DateUtc dt:dt=""string"">2023-09-29T17:27:35Z</DateUtc></StartTime><FrequencyChanges><FrequencyChange><Frequency dt:dt=""r8"">10000000</Frequency><Timestamp dt:dt=""r8"">15678614769531</Timestamp><Current dt:dt=""r8"">0</Current><DateUtc dt:dt=""string"">2023-09-29T17:27:35Z</DateUtc></FrequencyChange></FrequencyChanges></Clock>\n",2.0.10.252,2.0.10.356,2.0.10.356,Professional,1.0.0.6
sixmthproc,,List1,,,,,,,,,,,,,,,,,,,,,,3,1,6,6,,,,,,,,,,,,,,,,,,,,,,,,,,,,,,,DelayDiscountingTitrated,09-29-2023,13:27:35,9/29/2023 5:27:35 PM,3016,1,19,DelayDiscountingTitrated-3016-1,1986132285,1,60.017,"<?xml version=""1.0""?>\n<Clock xmlns:dt=""urn:schemas-microsoft-com:datatypes""><Description dt:dt=""string"">E-Prime Primary Realtime Clock</Description><StartTime><Timestamp dt:dt=""int"">0</Timestamp><DateUtc dt:dt=""string"">2023-09-29T17:27:35Z</DateUtc></StartTime><FrequencyChanges><FrequencyChange><Frequency dt:dt=""r8"">10000000</Frequency><Timestamp dt:dt=""r8"">15678614769531</Timestamp><Current dt:dt=""r8"">0</Current><DateUtc dt:dt=""string"">2023-09-29T17:27:35Z</DateUtc></FrequencyChange></FrequencyChanges></Clock>\n",2.0.10.252,2.0.10.356,2.0.10.356,Professional,1.0.0.6
,,,,,,,,,,,,,,,,,,,,,,,,,,,,,,,,,,,,,,,,,,,,,,,,,,,,,,,,,,DelayDiscountingTitrated,09-29-2023,13:27:35,9/29/2023 5:27:35 PM,3016,1,19,DelayDiscountingTitrated-3016-1,1986132285,1,60.017,"<?xml version=""1.0""?>\n<Clock xmlns:dt=""urn:schemas-microsoft-com:datatypes""><Description dt:dt=""string"">E-Prime Primary Realtime Clock</Description><StartTime><Timestamp dt:dt=""int"">0</Timestamp><DateUtc dt:dt=""string"">2023-09-29T17:27:35Z</DateUtc></StartTime><FrequencyChanges><FrequencyChange><Frequency dt:dt=""r8"">10000000</Frequency><Timestamp dt:dt=""r8"">15678614769531</Timestamp><Current dt:dt=""r8"">0</Current><DateUtc dt:dt=""string"">2023-09-29T17:27:35Z</DateUtc></FrequencyChange></FrequencyChanges></Clock>\n",2.0.10.252,2.0.10.356,2.0.10.356,Professional,1.0.0.6
