Procedure,List2,Running,List2.Cycle,List2.Sample,Slide2.RT,Slide2.RESP,Slide4.RT,Slide4.RESP,immed3,respprev,prevalue,imstring,Slide1.RT,Slide1.RESP,Slide5.RT,Slide5.RESP,immed5,immed,delaypd,List3,timedays,List3.Cycle,List3.Sample,List1,List1.Cycle,List1.Sample,roundnumber,List11,List11.Cycle,List11.Sample,List6,List6.Cycle,List6.Sample,List10,List10.Cycle,List10.Sample,List5,List5.Cycle,List5.Sample,List9,List9.Cycle,List9.Sample,List4,List4.Cycle,List4.Sample,List13,List13.Cycle,List13.Sample,List8,List8.Cycle,List8.Sample,List12,List12.Cycle,List12.Sample,List7,List7.Cycle,List7.Sample,Experiment,SessionDate,SessionTime,SessionStartDateTimeUtc,Subject,Session,Age,DataFile.Basename,RandomSeed,Group,Display.RefreshRate,Clock.Information,StudioVersion,RuntimeVersion,RuntimeVersionExpected,RuntimeCapabilities,ExperimentVersion
TrialProcInit,1,List2,1,1,6055,3,0,,600,3,200,,,,,,,,,,,,,,,,,,,,,,,,,,,,,,,,,,,,,,,,,,,,,,,DelayDiscountingTitrated Backup1,06-10-2024,13:50:48,6/10/2024 5:50:48 PM,2038,1,13,DelayDiscountingTitrated Backup1-2038-1,-241760376,1,60.018,"<?xml version=""1.0""?>\n<Clock xmlns:dt=""urn:schemas-microsoft-com:datatypes""><Description dt:dt=""string"">E-Prime Primary Realtime Clock</Description><StartTime><Timestamp dt:dt=""int"">0</Timestamp><DateUtc dt:dt=""string"">2024-06-10T17:50:48Z</DateUtc></StartTime><FrequencyChanges><FrequencyChange><Frequency dt:dt=""r8"">10000000</Frequency><Timestamp dt:dt=""r8"">29802534232382</Timestamp><Current dt:dt=""r8"">0</Current><DateUtc dt:dt=""string"">2024-06-10T17:50:48Z</DateUtc></FrequencyChange></FrequencyChanges></Clock>\n",2.0.10.252,2.0.10.356,2.0.10.356,Professional,1.0.0.1
TrialProc,2,List2,1,2,,,,,400,1,600,600,7157,1,0,,200,,,,,,,,,,,,,,,,,,,,,,,,,,,,,,,,,,,,,,,,,DelayDiscountingTitrated Backup1,06-10-2024,13:50:48,6/10/2024 5:50:48 PM,2038,1,13,DelayDiscountingTitrated Backup1-2038-1,-241760376,1,60.018,"<?xml version=""1.0""?>\n<Clock xmlns:dt=""urn:schemas-microsoft-com:datatypes""><Description dt:dt=""string"">E-Prime Primary Realtime Clock</Description><StartTime><Timestamp dt:dt=""int"">0</Timestamp><DateUtc dt:dt=""string"">2024-06-10T17:50:48Z</DateUtc></StartTime><FrequencyChanges><FrequencyChange><Frequency dt:dt=""r8"">10000000</Frequency><Timestamp dt:dt=""r8"">29802534232382</Timestamp><Current dt:dt=""r8"">0</Current><DateUtc dt:dt=""string"">2024-06-10T17:50:48Z</DateUtc></FrequencyChange></FrequencyChanges></Clock>\n",2.0.10.252,2.0.10.356,2.0.10.356,Professional,1.0.0.1
TrialProc,3,List2,1,3,,,,,500,3,400,400,2471,3,0,,100,,,,,,,,,,,,,,,,,,,,,,,,,,,,,,,,,,,,,,,,,DelayDiscountingTitrated Backup1,06-10-2024,13:50:48,6/10/2024 5:50:48 PM,2038,1,13,DelayDiscountingTitrated Backup1-2038-1,-241760376,1,60.018,"<?xml version=""1.0""?>\n<Clock xmlns:dt=""urn:schemas-microsoft-com:datatypes""><Description dt:dt=""string"">E-Prime Primary Realtime Clock</Description><StartTime><Timestamp dt:dt=""int"">0</Timestamp><DateUtc dt:dt=""string"">2024-06-10T17:50:48Z</DateUtc></StartTime><FrequencyChanges><FrequencyChange><Frequency dt:dt=""r8"">10000000</Frequency><Timestamp dt:dt=""r8"">29802534232382</Timestamp><Current dt:dt=""r8"">0</Current><DateUtc dt:dt=""string"">2024-06-10T17:50:48Z</DateUtc></FrequencyChange></FrequencyChanges></Clock>\n",2.0.10.252,2.0.10.356,2.0.10.356,Professional,1.0.0.1
TrialProc,4,List2,1,4,,,,,450,1,500,500,4204,1,0,,50,,,,,,,,,,,,,,,,,,,,,,,,,,,,,,,,,,,,,,,,,DelayDiscountingTitrated Backup1,06-10-2024,13:50:48,6/10/2024 5:50:48 PM,2038,1,13,DelayDiscountingTitrated Backup1-2038-1,-241760376,1,60.018,"<?xml version=""1.0""?>\n<Clock xmlns:dt=""urn:schemas-microsoft-com:datatypes""><Description dt:dt=""string"">E-Prime Primary Realtime Clock</Description><StartTime><Timestamp dt:dt=""int"">0</Timestamp><DateUtc dt:dt=""string"">2024-06-10T17:50:48Z</DateUtc></StartTime><FrequencyChanges><FrequencyChange><Frequency dt:dt=""r8"">10000000</Frequency><Timestamp dt:dt=""r8"">29802534232382</Timestamp><Current dt:dt=""r8"">0</Current><DateUtc dt:dt=""string"">2024-06-10T17:50:48Z</DateUtc></FrequencyChange></FrequencyChanges></Clock>\n",2.0.10.252,2.0.10.356,2.0.10.356,Professional,1.0.0.1
TrialProc,5,List2,1,5,,,,,475,3,450,450,1355,3,0,,25,,,,,,,,,,,,,,,,,,,,,,,,,,,,,,,,,,,,,,,,,DelayDiscountingTitrated Backup1,06-10-2024,13:50:48,6/10/2024 5:50:48 PM,2038,1,13,DelayDiscountingTitrated Backup1-2038-1,-241760376,1,60.018,"<?xml version=""1.0""?>\n<Clock xmlns:dt=""urn:schemas-microsoft-com:datatypes""><Description dt:dt=""string"">E-Prime Primary Realtime Clock</Description><StartTime><Timestamp dt:dt=""int"">0</Timestamp><DateUtc dt:dt=""string"">2024-06-10T17:50:48Z</DateUtc></StartTime><FrequencyChanges><FrequencyChange><Frequency dt:dt=""r8"">10000000</Frequency><Timestamp dt:dt=""r8"">29802534232382</Timestamp><Current dt:dt=""r8"">0</Current><DateUtc dt:dt=""string"">2024-06-10T17:50:48Z</DateUtc></FrequencyChange></FrequencyChanges></Clock>\n",2.0.10.252,2.0.10.356,2.0.10.356,Professional,1.0.0.1
TrialProc,6,List2,1,6,,,,,487,3,475,475,1460,3,0,,12,,,,,,,,,,,,,,,,,,,,,,,,,,,,,,,,,,,,,,,,,DelayDiscountingTitrated Backup1,06-10-2024,13:50:48,6/10/2024 5:50:48 PM,2038,1,13,DelayDiscountingTitrated Backup1-2038-1,-241760376,1,60.018,"<?xml version=""1.0""?>\n<Clock xmlns:dt=""urn:schemas-microsoft-com:datatypes""><Description dt:dt=""string"">E-Prime Primary Realtime Clock</Description><StartTime><Timestamp dt:dt=""int"">0</Timestamp><DateUtc dt:dt=""string"">2024-06-10T17:50:48Z</DateUtc></StartTime><FrequencyChanges><FrequencyChange><Frequency dt:dt=""r8"">10000000</Frequency><Timestamp dt:dt=""r8"">29802534232382</Timestamp><Current dt:dt=""r8"">0</Current><DateUtc dt:dt=""string"">2024-06-10T17:50:48Z</DateUtc></FrequencyChange></FrequencyChanges></Clock>\n",2.0.10.252,2.0.10.356,2.0.10.356,Professional,1.0.0.1
TrialProc,7,List2,1,7,,,,,493,3,487,487,4840,3,0,,6,,,,,,,,,,,,,,,,,,,,,,,,,,,,,,,,,,,,,,,,,DelayDiscountingTitrated Backup1,06-10-2024,13:50:48,6/10/2024 5:50:48 PM,2038,1,13,DelayDiscountingTitrated Backup1-2038-1,-241760376,1,60.018,"<?xml version=""1.0""?>\n<Clock xmlns:dt=""urn:schemas-microsoft-com:datatypes""><Description dt:dt=""string"">E-Prime Primary Realtime Clock</Description><StartTime><Timestamp dt:dt=""int"">0</Timestamp><DateUtc dt:dt=""string"">2024-06-10T17:50:48Z</DateUtc></StartTime><FrequencyChanges><FrequencyChange><Frequency dt:dt=""r8"">10000000</Frequency><Timestamp dt:dt=""r8"">29802534232382</Timestamp><Current dt:dt=""r8"">0</Current><DateUtc dt:dt=""string"">2024-06-10T17:50:48Z</DateUtc></FrequencyChange></FrequencyChanges></Clock>\n",2.0.10.252,2.0.10.356,2.0.10.356,Professional,1.0.0.1
TrialProc,8,List2,1,8,,,,,496,3,493,493,1183,3,0,,3,,,,,,,,,,,,,,,,,,,,,,,,,,,,,,,,,,,,,,,,,DelayDiscountingTitrated Backup1,06-10-2024,13:50:48,6/10/2024 5:50:48 PM,2038,1,13,DelayDiscountingTitrated Backup1-2038-1,-241760376,1,60.018,"<?xml version=""1.0""?>\n<Clock xmlns:dt=""urn:schemas-microsoft-com:datatypes""><Description dt:dt=""string"">E-Prime Primary Realtime Clock</Description><StartTime><Timestamp dt:dt=""int"">0</Timestamp><DateUtc dt:dt=""string"">2024-06-10T17:50:48Z</DateUtc></StartTime><FrequencyChanges><FrequencyChange><Frequency dt:dt=""r8"">10000000</Frequency><Timestamp dt:dt=""r8"">29802534232382</Timestamp><Current dt:dt=""r8"">0</Current><DateUtc dt:dt=""string"">2024-06-10T17:50:48Z</DateUtc></FrequencyChange></FrequencyChanges></Clock>\n",2.0.10.252,2.0.10.356,2.0.10.356,Professional,1.0.0.1
TrialProc,9,List2,1,9,,,,,498,3,496,496,998,3,0,,2,,,,,,,,,,,,,,,,,,,,,,,,,,,,,,,,,,,,,,,,,DelayDiscountingTitrated Backup1,06-10-2024,13:50:48,6/10/2024 5:50:48 PM,2038,1,13,DelayDiscountingTitrated Backup1-2038-1,-241760376,1,60.018,"<?xml version=""1.0""?>\n<Clock xmlns:dt=""urn:schemas-microsoft-com:datatypes""><Description dt:dt=""string"">E-Prime Primary Realtime Clock</Description><StartTime><Timestamp dt:dt=""int"">0</Timestamp><DateUtc dt:dt=""string"">2024-06-10T17:50:48Z</DateUtc></StartTime><FrequencyChanges><FrequencyChange><Frequency dt:dt=""r8"">10000000</Frequency><Timestamp dt:dt=""r8"">29802534232382</Timestamp><Current dt:dt=""r8"">0</Current><DateUtc dt:dt=""string"">2024-06-10T17:50:48Z</DateUtc></FrequencyChange></FrequencyChanges></Clock>\n",2.0.10.252,2.0.10.356,2.0.10.356,Professional,1.0.0.1
TrialProc,10,List2,1,10,,,,,499,3,498,498,981,3,0,,1,,,,,,,,,,,,,,,,,,,,,,,,,,,,,,,,,,,,,,,,,DelayDiscountingTitrated Backup1,06-10-2024,13:50:48,6/10/2024 5:50:48 PM,2038,1,13,DelayDiscountingTitrated Backup1-2038-1,-241760376,1,60.018,"<?xml version=""1.0""?>\n<Clock xmlns:dt=""urn:schemas-microsoft-com:datatypes""><Description dt:dt=""string"">E-Prime Primary Realtime Clock</Description><StartTime><Timestamp dt:dt=""int"">0</Timestamp><DateUtc dt:dt=""string"">2024-06-10T17:50:48Z</DateUtc></StartTime><FrequencyChanges><FrequencyChange><Frequency dt:dt=""r8"">10000000</Frequency><Timestamp dt:dt=""r8"">29802534232382</Timestamp><Current dt:dt=""r8"">0</Current><DateUtc dt:dt=""string"">2024-06-10T17:50:48Z</DateUtc></FrequencyChange></FrequencyChanges></Clock>\n",2.0.10.252,2.0.10.356,2.0.10.356,Professional,1.0.0.1
TrialProc,11,List2,1,11,,,,,499,3,498,499,1172,3,0,,,,,,,,,,,,,,,,,,,,,,,,,,,,,,,,,,,,,,,,,,,DelayDiscountingTitrated Backup1,06-10-2024,13:50:48,6/10/2024 5:50:48 PM,2038,1,13,DelayDiscountingTitrated Backup1-2038-1,-241760376,1,60.018,"<?xml version=""1.0""?>\n<Clock xmlns:dt=""urn:schemas-microsoft-com:datatypes""><Description dt:dt=""string"">E-Prime Primary Realtime Clock</Description><StartTime><Timestamp dt:dt=""int"">0</Timestamp><DateUtc dt:dt=""string"">2024-06-10T17:50:48Z</DateUtc></StartTime><FrequencyChanges><FrequencyChange><Frequency dt:dt=""r8"">10000000</Frequency><Timestamp dt:dt=""r8"">29802534232382</Timestamp><Current dt:dt=""r8"">0</Current><DateUtc dt:dt=""string"">2024-06-10T17:50:48Z</DateUtc></FrequencyChange></FrequencyChanges></Clock>\n",2.0.10.252,2.0.10.356,2.0.10.356,Professional,1.0.0.1
discount,,List3,,,,,,,,,,,,,,,,200,1 week,1,7,1,1,,,,,,,,,,,,,,,,,,,,,,,,,,,,,,,,,,,DelayDiscountingTitrated Backup1,06-10-2024,13:50:48,6/10/2024 5:50:48 PM,2038,1,13,DelayDiscountingTitrated Backup1-2038-1,-241760376,1,60.018,"<?xml version=""1.0""?>\n<Clock xmlns:dt=""urn:schemas-microsoft-com:datatypes""><Description dt:dt=""string"">E-Prime Primary Realtime Clock</Description><StartTime><Timestamp dt:dt=""int"">0</Timestamp><DateUtc dt:dt=""string"">2024-06-10T17:50:48Z</DateUtc></StartTime><FrequencyChanges><FrequencyChange><Frequency dt:dt=""r8"">10000000</Frequency><Timestamp dt:dt=""r8"">29802534232382</Timestamp><Current dt:dt=""r8"">0</Current><DateUtc dt:dt=""string"">2024-06-10T17:50:48Z</DateUtc></FrequencyChange></FrequencyChanges></Clock>\n",2.0.10.252,2.0.10.356,2.0.10.356,Professional,1.0.0.1
onewkproc,,List1,,,,,,,,,,,,,,,,,,,,,,1,1,1,1,,,,,,,,,,,,,,,,,,,,,,,,,,,,,,,DelayDiscountingTitrated Backup1,06-10-2024,13:50:48,6/10/2024 5:50:48 PM,2038,1,13,DelayDiscountingTitrated Backup1-2038-1,-241760376,1,60.018,"<?xml version=""1.0""?>\n<Clock xmlns:dt=""urn:schemas-microsoft-com:datatypes""><Description dt:dt=""string"">E-Prime Primary Realtime Clock</Description><StartTime><Timestamp dt:dt=""int"">0</Timestamp><DateUtc dt:dt=""string"">2024-06-10T17:50:48Z</DateUtc></StartTime><FrequencyChanges><FrequencyChange><Frequency dt:dt=""r8"">10000000</Frequency><Timestamp dt:dt=""r8"">29802534232382</Timestamp><Current dt:dt=""r8"">0</Current><DateUtc dt:dt=""string"">2024-06-10T17:50:48Z</DateUtc></FrequencyChange></FrequencyChanges></Clock>\n",2.0.10.252,2.0.10.356,2.0.10.356,Professional,1.0.0.1
Init3,,List11,,,3261,1,0,,250,1,500,,,,,,,,,,,,,,,,,1,1,1,,,,,,,,,,,,,,,,,,,,,,,,,,,,DelayDiscountingTitrated Backup1,06-10-2024,13:50:48,6/10/2024 5:50:48 PM,2038,1,13,DelayDiscountingTitrated Backup1-2038-1,-241760376,1,60.018,"<?xml version=""1.0""?>\n<Clock xmlns:dt=""urn:schemas-microsoft-com:datatypes""><Description dt:dt=""string"">E-Prime Primary Realtime Clock</Description><StartTime><Timestamp dt:dt=""int"">0</Timestamp><DateUtc dt:dt=""string"">2024-06-10T17:50:48Z</DateUtc></StartTime><FrequencyChanges><FrequencyChange><Frequency dt:dt=""r8"">10000000</Frequency><Timestamp dt:dt=""r8"">29802534232382</Timestamp><Current dt:dt=""r8"">0</Current><DateUtc dt:dt=""string"">2024-06-10T17:50:48Z</DateUtc></FrequencyChange></FrequencyChanges></Clock>\n",2.0.10.252,2.0.10.356,2.0.10.356,Professional,1.0.0.1
Proc3,,List11,,,,,,,125,1,250,250,1394,1,0,,125,,,,,,,,,,,2,1,2,,,,,,,,,,,,,,,,,,,,,,,,,,,,DelayDiscountingTitrated Backup1,06-10-2024,13:50:48,6/10/2024 5:50:48 PM,2038,1,13,DelayDiscountingTitrated Backup1-2038-1,-241760376,1,60.018,"<?xml version=""1.0""?>\n<Clock xmlns:dt=""urn:schemas-microsoft-com:datatypes""><Description dt:dt=""string"">E-Prime Primary Realtime Clock</Description><StartTime><Timestamp dt:dt=""int"">0</Timestamp><DateUtc dt:dt=""string"">2024-06-10T17:50:48Z</DateUtc></StartTime><FrequencyChanges><FrequencyChange><Frequency dt:dt=""r8"">10000000</Frequency><Timestamp dt:dt=""r8"">29802534232382</Timestamp><Current dt:dt=""r8"">0</Current><DateUtc dt:dt=""string"">2024-06-10T17:50:48Z</DateUtc></FrequencyChange></FrequencyChanges></Clock>\n",2.0.10.252,2.0.10.356,2.0.10.356,Professional,1.0.0.1
Proc3,,List11,,,,,,,63,1,125,125,2913,1,0,,62,,,,,,,,,,,3,1,3,,,,,,,,,,,,,,,,,,,,,,,,,,,,DelayDiscountingTitrated Backup1,06-10-2024,13:50:48,6/10/2024 5:50:48 PM,2038,1,13,DelayDiscountingTitrated Backup1-2038-1,-241760376,1,60.018,"<?xml version=""1.0""?>\n<Clock xmlns:dt=""urn:schemas-microsoft-com:datatypes""><Description dt:dt=""string"">E-Prime Primary Realtime Clock</Description><StartTime><Timestamp dt:dt=""int"">0</Timestamp><DateUtc dt:dt=""string"">2024-06-10T17:50:48Z</DateUtc></StartTime><FrequencyChanges><FrequencyChange><Frequency dt:dt=""r8"">10000000</Frequency><Timestamp dt:dt=""r8"">29802534232382</Timestamp><Current dt:dt=""r8"">0</Current><DateUtc dt:dt=""string"">2024-06-10T17:50:48Z</DateUtc></FrequencyChange></FrequencyChanges></Clock>\n",2.0.10.252,2.0.10.356,2.0.10.356,Professional,1.0.0.1
Proc3,,List11,,,,,,,94,3,63,63,1907,3,0,,31,,,,,,,,,,,4,1,4,,,,,,,,,,,,,,,,,,,,,,,,,,,,DelayDiscountingTitrated Backup1,06-10-2024,13:50:48,6/10/2024 5:50:48 PM,2038,1,13,DelayDiscountingTitrated Backup1-2038-1,-241760376,1,60.018,"<?xml version=""1.0""?>\n<Clock xmlns:dt=""urn:schemas-microsoft-com:datatypes""><Description dt:dt=""string"">E-Prime Primary Realtime Clock</Description><StartTime><Timestamp dt:dt=""int"">0</Timestamp><DateUtc dt:dt=""string"">2024-06-10T17:50:48Z</DateUtc></StartTime><FrequencyChanges><FrequencyChange><Frequency dt:dt=""r8"">10000000</Frequency><Timestamp dt:dt=""r8"">29802534232382</Timestamp><Current dt:dt=""r8"">0</Current><DateUtc dt:dt=""string"">2024-06-10T17:50:48Z</DateUtc></FrequencyChange></FrequencyChanges></Clock>\n",2.0.10.252,2.0.10.356,2.0.10.356,Professional,1.0.0.1
Proc3,,List11,,,,,,,110,3,94,94,886,3,0,,16,,,,,,,,,,,5,1,5,,,,,,,,,,,,,,,,,,,,,,,,,,,,DelayDiscountingTitrated Backup1,06-10-2024,13:50:48,6/10/2024 5:50:48 PM,2038,1,13,DelayDiscountingTitrated Backup1-2038-1,-241760376,1,60.018,"<?xml version=""1.0""?>\n<Clock xmlns:dt=""urn:schemas-microsoft-com:datatypes""><Description dt:dt=""string"">E-Prime Primary Realtime Clock</Description><StartTime><Timestamp dt:dt=""int"">0</Timestamp><DateUtc dt:dt=""string"">2024-06-10T17:50:48Z</DateUtc></StartTime><FrequencyChanges><FrequencyChange><Frequency dt:dt=""r8"">10000000</Frequency><Timestamp dt:dt=""r8"">29802534232382</Timestamp><Current dt:dt=""r8"">0</Current><DateUtc dt:dt=""string"">2024-06-10T17:50:48Z</DateUtc></FrequencyChange></FrequencyChanges></Clock>\n",2.0.10.252,2.0.10.356,2.0.10.356,Professional,1.0.0.1
Proc3,,List11,,,,,,,102,1,110,110,1057,1,0,,8,,,,,,,,,,,6,1,6,,,,,,,,,,,,,,,,,,,,,,,,,,,,DelayDiscountingTitrated Backup1,06-10-2024,13:50:48,6/10/2024 5:50:48 PM,2038,1,13,DelayDiscountingTitrated Backup1-2038-1,-241760376,1,60.018,"<?xml version=""1.0""?>\n<Clock xmlns:dt=""urn:schemas-microsoft-com:datatypes""><Description dt:dt=""string"">E-Prime Primary Realtime Clock</Description><StartTime><Timestamp dt:dt=""int"">0</Timestamp><DateUtc dt:dt=""string"">2024-06-10T17:50:48Z</DateUtc></StartTime><FrequencyChanges><FrequencyChange><Frequency dt:dt=""r8"">10000000</Frequency><Timestamp dt:dt=""r8"">29802534232382</Timestamp><Current dt:dt=""r8"">0</Current><DateUtc dt:dt=""string"">2024-06-10T17:50:48Z</DateUtc></FrequencyChange></FrequencyChanges></Clock>\n",2.0.10.252,2.0.10.356,2.0.10.356,Professional,1.0.0.1
Proc3,,List11,,,,,,,106,3,102,102,1070,3,0,,4,,,,,,,,,,,7,1,7,,,,,,,,,,,,,,,,,,,,,,,,,,,,DelayDiscountingTitrated Backup1,06-10-2024,13:50:48,6/10/2024 5:50:48 PM,2038,1,13,DelayDiscountingTitrated Backup1-2038-1,-241760376,1,60.018,"<?xml version=""1.0""?>\n<Clock xmlns:dt=""urn:schemas-microsoft-com:datatypes""><Description dt:dt=""string"">E-Prime Primary Realtime Clock</Description><StartTime><Timestamp dt:dt=""int"">0</Timestamp><DateUtc dt:dt=""string"">2024-06-10T17:50:48Z</DateUtc></StartTime><FrequencyChanges><FrequencyChange><Frequency dt:dt=""r8"">10000000</Frequency><Timestamp dt:dt=""r8"">29802534232382</Timestamp><Current dt:dt=""r8"">0</Current><DateUtc dt:dt=""string"">2024-06-10T17:50:48Z</DateUtc></FrequencyChange></FrequencyChanges></Clock>\n",2.0.10.252,2.0.10.356,2.0.10.356,Professional,1.0.0.1
Proc3,,List11,,,,,,,108,3,106,106,1770,3,0,,2,,,,,,,,,,,8,1,8,,,,,,,,,,,,,,,,,,,,,,,,,,,,DelayDiscountingTitrated Backup1,06-10-2024,13:50:48,6/10/2024 5:50:48 PM,2038,1,13,DelayDiscountingTitrated Backup1-2038-1,-241760376,1,60.018,"<?xml version=""1.0""?>\n<Clock xmlns:dt=""urn:schemas-microsoft-com:datatypes""><Description dt:dt=""string"">E-Prime Primary Realtime Clock</Description><StartTime><Timestamp dt:dt=""int"">0</Timestamp><DateUtc dt:dt=""string"">2024-06-10T17:50:48Z</DateUtc></StartTime><FrequencyChanges><FrequencyChange><Frequency dt:dt=""r8"">10000000</Frequency><Timestamp dt:dt=""r8"">29802534232382</Timestamp><Current dt:dt=""r8"">0</Current><DateUtc dt:dt=""string"">2024-06-10T17:50:48Z</DateUtc></FrequencyChange></FrequencyChanges></Clock>\n",2.0.10.252,2.0.10.356,2.0.10.356,Professional,1.0.0.1
Proc3,,List11,,,,,,,109,3,108,108,858,3,0,,1,,,,,,,,,,,9,1,9,,,,,,,,,,,,,,,,,,,,,,,,,,,,DelayDiscountingTitrated Backup1,06-10-2024,13:50:48,6/10/2024 5:50:48 PM,2038,1,13,DelayDiscountingTitrated Backup1-2038-1,-241760376,1,60.018,"<?xml version=""1.0""?>\n<Clock xmlns:dt=""urn:schemas-microsoft-com:datatypes""><Description dt:dt=""string"">E-Prime Primary Realtime Clock</Description><StartTime><Timestamp dt:dt=""int"">0</Timestamp><DateUtc dt:dt=""string"">2024-06-10T17:50:48Z</DateUtc></StartTime><FrequencyChanges><FrequencyChange><Frequency dt:dt=""r8"">10000000</Frequency><Timestamp dt:dt=""r8"">29802534232382</Timestamp><Current dt:dt=""r8"">0</Current><DateUtc dt:dt=""string"">2024-06-10T17:50:48Z</DateUtc></FrequencyChange></FrequencyChanges></Clock>\n",2.0.10.252,2.0.10.356,2.0.10.356,Professional,1.0.0.1
Proc3,,List11,,,,,,,109,3,108,109,615,3,0,,,,,,,,,,,,,10,1,10,,,,,,,,,,,,,,,,,,,,,,,,,,,,DelayDiscountingTitrated Backup1,06-10-2024,13:50:48,6/10/2024 5:50:48 PM,2038,1,13,DelayDiscountingTitrated Backup1-2038-1,-241760376,1,60.018,"<?xml version=""1.0""?>\n<Clock xmlns:dt=""urn:schemas-microsoft-com:datatypes""><Description dt:dt=""string"">E-Prime Primary Realtime Clock</Description><StartTime><Timestamp dt:dt=""int"">0</Timestamp><DateUtc dt:dt=""string"">2024-06-10T17:50:48Z</DateUtc></StartTime><FrequencyChanges><FrequencyChange><Frequency dt:dt=""r8"">10000000</Frequency><Timestamp dt:dt=""r8"">29802534232382</Timestamp><Current dt:dt=""r8"">0</Current><DateUtc dt:dt=""string"">2024-06-10T17:50:48Z</DateUtc></FrequencyChange></FrequencyChanges></Clock>\n",2.0.10.252,2.0.10.356,2.0.10.356,Professional,1.0.0.1
discount3,,List6,,,,,,,,,,,,,,,,500,1 year,,365,,,,,,,,,,2,1,1,,,,,,,,,,,,,,,,,,,,,,,,,DelayDiscountingTitrated Backup1,06-10-2024,13:50:48,6/10/2024 5:50:48 PM,2038,1,13,DelayDiscountingTitrated Backup1-2038-1,-241760376,1,60.018,"<?xml version=""1.0""?>\n<Clock xmlns:dt=""urn:schemas-microsoft-com:datatypes""><Description dt:dt=""string"">E-Prime Primary Realtime Clock</Description><StartTime><Timestamp dt:dt=""int"">0</Timestamp><DateUtc dt:dt=""string"">2024-06-10T17:50:48Z</DateUtc></StartTime><FrequencyChanges><FrequencyChange><Frequency dt:dt=""r8"">10000000</Frequency><Timestamp dt:dt=""r8"">29802534232382</Timestamp><Current dt:dt=""r8"">0</Current><DateUtc dt:dt=""string"">2024-06-10T17:50:48Z</DateUtc></FrequencyChange></FrequencyChanges></Clock>\n",2.0.10.252,2.0.10.356,2.0.10.356,Professional,1.0.0.1
oneyearproc,,List1,,,,,,,,,,,,,,,,,,,,,,4,1,2,2,,,,,,,,,,,,,,,,,,,,,,,,,,,,,,,DelayDiscountingTitrated Backup1,06-10-2024,13:50:48,6/10/2024 5:50:48 PM,2038,1,13,DelayDiscountingTitrated Backup1-2038-1,-241760376,1,60.018,"<?xml version=""1.0""?>\n<Clock xmlns:dt=""urn:schemas-microsoft-com:datatypes""><Description dt:dt=""string"">E-Prime Primary Realtime Clock</Description><StartTime><Timestamp dt:dt=""int"">0</Timestamp><DateUtc dt:dt=""string"">2024-06-10T17:50:48Z</DateUtc></StartTime><FrequencyChanges><FrequencyChange><Frequency dt:dt=""r8"">10000000</Frequency><Timestamp dt:dt=""r8"">29802534232382</Timestamp><Current dt:dt=""r8"">0</Current><DateUtc dt:dt=""string"">2024-06-10T17:50:48Z</DateUtc></FrequencyChange></FrequencyChanges></Clock>\n",2.0.10.252,2.0.10.356,2.0.10.356,Professional,1.0.0.1
Init2,,List10,,,3512,1,0,,250,1,500,,,,,,,,,,,,,,,,,,,,,,,1,1,1,,,,,,,,,,,,,,,,,,,,,,DelayDiscountingTitrated Backup1,06-10-2024,13:50:48,6/10/2024 5:50:48 PM,2038,1,13,DelayDiscountingTitrated Backup1-2038-1,-241760376,1,60.018,"<?xml version=""1.0""?>\n<Clock xmlns:dt=""urn:schemas-microsoft-com:datatypes""><Description dt:dt=""string"">E-Prime Primary Realtime Clock</Description><StartTime><Timestamp dt:dt=""int"">0</Timestamp><DateUtc dt:dt=""string"">2024-06-10T17:50:48Z</DateUtc></StartTime><FrequencyChanges><FrequencyChange><Frequency dt:dt=""r8"">10000000</Frequency><Timestamp dt:dt=""r8"">29802534232382</Timestamp><Current dt:dt=""r8"">0</Current><DateUtc dt:dt=""string"">2024-06-10T17:50:48Z</DateUtc></FrequencyChange></FrequencyChanges></Clock>\n",2.0.10.252,2.0.10.356,2.0.10.356,Professional,1.0.0.1
Proc2,,List10,,,,,,,375,3,250,250,6267,3,0,,125,,,,,,,,,,,,,,,,,2,1,2,,,,,,,,,,,,,,,,,,,,,,DelayDiscountingTitrated Backup1,06-10-2024,13:50:48,6/10/2024 5:50:48 PM,2038,1,13,DelayDiscountingTitrated Backup1-2038-1,-241760376,1,60.018,"<?xml version=""1.0""?>\n<Clock xmlns:dt=""urn:schemas-microsoft-com:datatypes""><Description dt:dt=""string"">E-Prime Primary Realtime Clock</Description><StartTime><Timestamp dt:dt=""int"">0</Timestamp><DateUtc dt:dt=""string"">2024-06-10T17:50:48Z</DateUtc></StartTime><FrequencyChanges><FrequencyChange><Frequency dt:dt=""r8"">10000000</Frequency><Timestamp dt:dt=""r8"">29802534232382</Timestamp><Current dt:dt=""r8"">0</Current><DateUtc dt:dt=""string"">2024-06-10T17:50:48Z</DateUtc></FrequencyChange></FrequencyChanges></Clock>\n",2.0.10.252,2.0.10.356,2.0.10.356,Professional,1.0.0.1
Proc2,,List10,,,,,,,437,3,375,375,2656,3,0,,62,,,,,,,,,,,,,,,,,3,1,3,,,,,,,,,,,,,,,,,,,,,,DelayDiscountingTitrated Backup1,06-10-2024,13:50:48,6/10/2024 5:50:48 PM,2038,1,13,DelayDiscountingTitrated Backup1-2038-1,-241760376,1,60.018,"<?xml version=""1.0""?>\n<Clock xmlns:dt=""urn:schemas-microsoft-com:datatypes""><Description dt:dt=""string"">E-Prime Primary Realtime Clock</Description><StartTime><Timestamp dt:dt=""int"">0</Timestamp><DateUtc dt:dt=""string"">2024-06-10T17:50:48Z</DateUtc></StartTime><FrequencyChanges><FrequencyChange><Frequency dt:dt=""r8"">10000000</Frequency><Timestamp dt:dt=""r8"">29802534232382</Timestamp><Current dt:dt=""r8"">0</Current><DateUtc dt:dt=""string"">2024-06-10T17:50:48Z</DateUtc></FrequencyChange></FrequencyChanges></Clock>\n",2.0.10.252,2.0.10.356,2.0.10.356,Professional,1.0.0.1
Proc2,,List10,,,,,,,406,1,437,437,557,1,0,,31,,,,,,,,,,,,,,,,,4,1,4,,,,,,,,,,,,,,,,,,,,,,DelayDiscountingTitrated Backup1,06-10-2024,13:50:48,6/10/2024 5:50:48 PM,2038,1,13,DelayDiscountingTitrated Backup1-2038-1,-241760376,1,60.018,"<?xml version=""1.0""?>\n<Clock xmlns:dt=""urn:schemas-microsoft-com:datatypes""><Description dt:dt=""string"">E-Prime Primary Realtime Clock</Description><StartTime><Timestamp dt:dt=""int"">0</Timestamp><DateUtc dt:dt=""string"">2024-06-10T17:50:48Z</DateUtc></StartTime><FrequencyChanges><FrequencyChange><Frequency dt:dt=""r8"">10000000</Frequency><Timestamp dt:dt=""r8"">29802534232382</Timestamp><Current dt:dt=""r8"">0</Current><DateUtc dt:dt=""string"">2024-06-10T17:50:48Z</DateUtc></FrequencyChange></FrequencyChanges></Clock>\n",2.0.10.252,2.0.10.356,2.0.10.356,Professional,1.0.0.1
Proc2,,List10,,,,,,,390,1,406,406,606,1,0,,16,,,,,,,,,,,,,,,,,5,1,5,,,,,,,,,,,,,,,,,,,,,,DelayDiscountingTitrated Backup1,06-10-2024,13:50:48,6/10/2024 5:50:48 PM,2038,1,13,DelayDiscountingTitrated Backup1-2038-1,-241760376,1,60.018,"<?xml version=""1.0""?>\n<Clock xmlns:dt=""urn:schemas-microsoft-com:datatypes""><Description dt:dt=""string"">E-Prime Primary Realtime Clock</Description><StartTime><Timestamp dt:dt=""int"">0</Timestamp><DateUtc dt:dt=""string"">2024-06-10T17:50:48Z</DateUtc></StartTime><FrequencyChanges><FrequencyChange><Frequency dt:dt=""r8"">10000000</Frequency><Timestamp dt:dt=""r8"">29802534232382</Timestamp><Current dt:dt=""r8"">0</Current><DateUtc dt:dt=""string"">2024-06-10T17:50:48Z</DateUtc></FrequencyChange></FrequencyChanges></Clock>\n",2.0.10.252,2.0.10.356,2.0.10.356,Professional,1.0.0.1
Proc2,,List10,,,,,,,398,3,390,390,653,3,0,,8,,,,,,,,,,,,,,,,,6,1,6,,,,,,,,,,,,,,,,,,,,,,DelayDiscountingTitrated Backup1,06-10-2024,13:50:48,6/10/2024 5:50:48 PM,2038,1,13,DelayDiscountingTitrated Backup1-2038-1,-241760376,1,60.018,"<?xml version=""1.0""?>\n<Clock xmlns:dt=""urn:schemas-microsoft-com:datatypes""><Description dt:dt=""string"">E-Prime Primary Realtime Clock</Description><StartTime><Timestamp dt:dt=""int"">0</Timestamp><DateUtc dt:dt=""string"">2024-06-10T17:50:48Z</DateUtc></StartTime><FrequencyChanges><FrequencyChange><Frequency dt:dt=""r8"">10000000</Frequency><Timestamp dt:dt=""r8"">29802534232382</Timestamp><Current dt:dt=""r8"">0</Current><DateUtc dt:dt=""string"">2024-06-10T17:50:48Z</DateUtc></FrequencyChange></FrequencyChanges></Clock>\n",2.0.10.252,2.0.10.356,2.0.10.356,Professional,1.0.0.1
Proc2,,List10,,,,,,,394,1,398,398,825,1,0,,4,,,,,,,,,,,,,,,,,7,1,7,,,,,,,,,,,,,,,,,,,,,,DelayDiscountingTitrated Backup1,06-10-2024,13:50:48,6/10/2024 5:50:48 PM,2038,1,13,DelayDiscountingTitrated Backup1-2038-1,-241760376,1,60.018,"<?xml version=""1.0""?>\n<Clock xmlns:dt=""urn:schemas-microsoft-com:datatypes""><Description dt:dt=""string"">E-Prime Primary Realtime Clock</Description><StartTime><Timestamp dt:dt=""int"">0</Timestamp><DateUtc dt:dt=""string"">2024-06-10T17:50:48Z</DateUtc></StartTime><FrequencyChanges><FrequencyChange><Frequency dt:dt=""r8"">10000000</Frequency><Timestamp dt:dt=""r8"">29802534232382</Timestamp><Current dt:dt=""r8"">0</Current><DateUtc dt:dt=""string"">2024-06-10T17:50:48Z</DateUtc></FrequencyChange></FrequencyChanges></Clock>\n",2.0.10.252,2.0.10.356,2.0.10.356,Professional,1.0.0.1
Proc2,,List10,,,,,,,392,1,394,394,831,1,0,,2,,,,,,,,,,,,,,,,,8,1,8,,,,,,,,,,,,,,,,,,,,,,DelayDiscountingTitrated Backup1,06-10-2024,13:50:48,6/10/2024 5:50:48 PM,2038,1,13,DelayDiscountingTitrated Backup1-2038-1,-241760376,1,60.018,"<?xml version=""1.0""?>\n<Clock xmlns:dt=""urn:schemas-microsoft-com:datatypes""><Description dt:dt=""string"">E-Prime Primary Realtime Clock</Description><StartTime><Timestamp dt:dt=""int"">0</Timestamp><DateUtc dt:dt=""string"">2024-06-10T17:50:48Z</DateUtc></StartTime><FrequencyChanges><FrequencyChange><Frequency dt:dt=""r8"">10000000</Frequency><Timestamp dt:dt=""r8"">29802534232382</Timestamp><Current dt:dt=""r8"">0</Current><DateUtc dt:dt=""string"">2024-06-10T17:50:48Z</DateUtc></FrequencyChange></FrequencyChanges></Clock>\n",2.0.10.252,2.0.10.356,2.0.10.356,Professional,1.0.0.1
Proc2,,List10,,,,,,,391,1,392,392,852,1,0,,1,,,,,,,,,,,,,,,,,9,1,9,,,,,,,,,,,,,,,,,,,,,,DelayDiscountingTitrated Backup1,06-10-2024,13:50:48,6/10/2024 5:50:48 PM,2038,1,13,DelayDiscountingTitrated Backup1-2038-1,-241760376,1,60.018,"<?xml version=""1.0""?>\n<Clock xmlns:dt=""urn:schemas-microsoft-com:datatypes""><Description dt:dt=""string"">E-Prime Primary Realtime Clock</Description><StartTime><Timestamp dt:dt=""int"">0</Timestamp><DateUtc dt:dt=""string"">2024-06-10T17:50:48Z</DateUtc></StartTime><FrequencyChanges><FrequencyChange><Frequency dt:dt=""r8"">10000000</Frequency><Timestamp dt:dt=""r8"">29802534232382</Timestamp><Current dt:dt=""r8"">0</Current><DateUtc dt:dt=""string"">2024-06-10T17:50:48Z</DateUtc></FrequencyChange></FrequencyChanges></Clock>\n",2.0.10.252,2.0.10.356,2.0.10.356,Professional,1.0.0.1
Proc2,,List10,,,,,,,391,1,392,391,841,1,0,,,,,,,,,,,,,,,,,,,10,1,10,,,,,,,,,,,,,,,,,,,,,,DelayDiscountingTitrated Backup1,06-10-2024,13:50:48,6/10/2024 5:50:48 PM,2038,1,13,DelayDiscountingTitrated Backup1-2038-1,-241760376,1,60.018,"<?xml version=""1.0""?>\n<Clock xmlns:dt=""urn:schemas-microsoft-com:datatypes""><Description dt:dt=""string"">E-Prime Primary Realtime Clock</Description><StartTime><Timestamp dt:dt=""int"">0</Timestamp><DateUtc dt:dt=""string"">2024-06-10T17:50:48Z</DateUtc></StartTime><FrequencyChanges><FrequencyChange><Frequency dt:dt=""r8"">10000000</Frequency><Timestamp dt:dt=""r8"">29802534232382</Timestamp><Current dt:dt=""r8"">0</Current><DateUtc dt:dt=""string"">2024-06-10T17:50:48Z</DateUtc></FrequencyChange></FrequencyChanges></Clock>\n",2.0.10.252,2.0.10.356,2.0.10.356,Professional,1.0.0.1
discount2,,List5,,,,,,,,,,,,,,,,500,6 month,,180,,,,,,,,,,,,,,,,2,1,1,,,,,,,,,,,,,,,,,,,DelayDiscountingTitrated Backup1,06-10-2024,13:50:48,6/10/2024 5:50:48 PM,2038,1,13,DelayDiscountingTitrated Backup1-2038-1,-241760376,1,60.018,"<?xml version=""1.0""?>\n<Clock xmlns:dt=""urn:schemas-microsoft-com:datatypes""><Description dt:dt=""string"">E-Prime Primary Realtime Clock</Description><StartTime><Timestamp dt:dt=""int"">0</Timestamp><DateUtc dt:dt=""string"">2024-06-10T17:50:48Z</DateUtc></StartTime><FrequencyChanges><FrequencyChange><Frequency dt:dt=""r8"">10000000</Frequency><Timestamp dt:dt=""r8"">29802534232382</Timestamp><Current dt:dt=""r8"">0</Current><DateUtc dt:dt=""string"">2024-06-10T17:50:48Z</DateUtc></FrequencyChange></FrequencyChanges></Clock>\n",2.0.10.252,2.0.10.356,2.0.10.356,Professional,1.0.0.1
sixmthproc,,List1,,,,,,,,,,,,,,,,,,,,,,3,1,3,3,,,,,,,,,,,,,,,,,,,,,,,,,,,,,,,DelayDiscountingTitrated Backup1,06-10-2024,13:50:48,6/10/2024 5:50:48 PM,2038,1,13,DelayDiscountingTitrated Backup1-2038-1,-241760376,1,60.018,"<?xml version=""1.0""?>\n<Clock xmlns:dt=""urn:schemas-microsoft-com:datatypes""><Description dt:dt=""string"">E-Prime Primary Realtime Clock</Description><StartTime><Timestamp dt:dt=""int"">0</Timestamp><DateUtc dt:dt=""string"">2024-06-10T17:50:48Z</DateUtc></StartTime><FrequencyChanges><FrequencyChange><Frequency dt:dt=""r8"">10000000</Frequency><Timestamp dt:dt=""r8"">29802534232382</Timestamp><Current dt:dt=""r8"">0</Current><DateUtc dt:dt=""string"">2024-06-10T17:50:48Z</DateUtc></FrequencyChange></FrequencyChanges></Clock>\n",2.0.10.252,2.0.10.356,2.0.10.356,Professional,1.0.0.1
Init1,,List9,,,2889,1,0,,400,1,800,,,,,,,,,,,,,,,,,,,,,,,,,,,,,1,1,1,,,,,,,,,,,,,,,,DelayDiscountingTitrated Backup1,06-10-2024,13:50:48,6/10/2024 5:50:48 PM,2038,1,13,DelayDiscountingTitrated Backup1-2038-1,-241760376,1,60.018,"<?xml version=""1.0""?>\n<Clock xmlns:dt=""urn:schemas-microsoft-com:datatypes""><Description dt:dt=""string"">E-Prime Primary Realtime Clock</Description><StartTime><Timestamp dt:dt=""int"">0</Timestamp><DateUtc dt:dt=""string"">2024-06-10T17:50:48Z</DateUtc></StartTime><FrequencyChanges><FrequencyChange><Frequency dt:dt=""r8"">10000000</Frequency><Timestamp dt:dt=""r8"">29802534232382</Timestamp><Current dt:dt=""r8"">0</Current><DateUtc dt:dt=""string"">2024-06-10T17:50:48Z</DateUtc></FrequencyChange></FrequencyChanges></Clock>\n",2.0.10.252,2.0.10.356,2.0.10.356,Professional,1.0.0.1
Proc1,,List9,,,,,,,600,3,400,400,3173,3,0,,200,,,,,,,,,,,,,,,,,,,,,,,2,1,2,,,,,,,,,,,,,,,,DelayDiscountingTitrated Backup1,06-10-2024,13:50:48,6/10/2024 5:50:48 PM,2038,1,13,DelayDiscountingTitrated Backup1-2038-1,-241760376,1,60.018,"<?xml version=""1.0""?>\n<Clock xmlns:dt=""urn:schemas-microsoft-com:datatypes""><Description dt:dt=""string"">E-Prime Primary Realtime Clock</Description><StartTime><Timestamp dt:dt=""int"">0</Timestamp><DateUtc dt:dt=""string"">2024-06-10T17:50:48Z</DateUtc></StartTime><FrequencyChanges><FrequencyChange><Frequency dt:dt=""r8"">10000000</Frequency><Timestamp dt:dt=""r8"">29802534232382</Timestamp><Current dt:dt=""r8"">0</Current><DateUtc dt:dt=""string"">2024-06-10T17:50:48Z</DateUtc></FrequencyChange></FrequencyChanges></Clock>\n",2.0.10.252,2.0.10.356,2.0.10.356,Professional,1.0.0.1
Proc1,,List9,,,,,,,500,1,600,600,1334,1,0,,100,,,,,,,,,,,,,,,,,,,,,,,3,1,3,,,,,,,,,,,,,,,,DelayDiscountingTitrated Backup1,06-10-2024,13:50:48,6/10/2024 5:50:48 PM,2038,1,13,DelayDiscountingTitrated Backup1-2038-1,-241760376,1,60.018,"<?xml version=""1.0""?>\n<Clock xmlns:dt=""urn:schemas-microsoft-com:datatypes""><Description dt:dt=""string"">E-Prime Primary Realtime Clock</Description><StartTime><Timestamp dt:dt=""int"">0</Timestamp><DateUtc dt:dt=""string"">2024-06-10T17:50:48Z</DateUtc></StartTime><FrequencyChanges><FrequencyChange><Frequency dt:dt=""r8"">10000000</Frequency><Timestamp dt:dt=""r8"">29802534232382</Timestamp><Current dt:dt=""r8"">0</Current><DateUtc dt:dt=""string"">2024-06-10T17:50:48Z</DateUtc></FrequencyChange></FrequencyChanges></Clock>\n",2.0.10.252,2.0.10.356,2.0.10.356,Professional,1.0.0.1
Proc1,,List9,,,,,,,450,1,500,500,871,1,0,,50,,,,,,,,,,,,,,,,,,,,,,,4,1,4,,,,,,,,,,,,,,,,DelayDiscountingTitrated Backup1,06-10-2024,13:50:48,6/10/2024 5:50:48 PM,2038,1,13,DelayDiscountingTitrated Backup1-2038-1,-241760376,1,60.018,"<?xml version=""1.0""?>\n<Clock xmlns:dt=""urn:schemas-microsoft-com:datatypes""><Description dt:dt=""string"">E-Prime Primary Realtime Clock</Description><StartTime><Timestamp dt:dt=""int"">0</Timestamp><DateUtc dt:dt=""string"">2024-06-10T17:50:48Z</DateUtc></StartTime><FrequencyChanges><FrequencyChange><Frequency dt:dt=""r8"">10000000</Frequency><Timestamp dt:dt=""r8"">29802534232382</Timestamp><Current dt:dt=""r8"">0</Current><DateUtc dt:dt=""string"">2024-06-10T17:50:48Z</DateUtc></FrequencyChange></FrequencyChanges></Clock>\n",2.0.10.252,2.0.10.356,2.0.10.356,Professional,1.0.0.1
Proc1,,List9,,,,,,,475,3,450,450,1315,3,0,,25,,,,,,,,,,,,,,,,,,,,,,,5,1,5,,,,,,,,,,,,,,,,DelayDiscountingTitrated Backup1,06-10-2024,13:50:48,6/10/2024 5:50:48 PM,2038,1,13,DelayDiscountingTitrated Backup1-2038-1,-241760376,1,60.018,"<?xml version=""1.0""?>\n<Clock xmlns:dt=""urn:schemas-microsoft-com:datatypes""><Description dt:dt=""string"">E-Prime Primary Realtime Clock</Description><StartTime><Timestamp dt:dt=""int"">0</Timestamp><DateUtc dt:dt=""string"">2024-06-10T17:50:48Z</DateUtc></StartTime><FrequencyChanges><FrequencyChange><Frequency dt:dt=""r8"">10000000</Frequency><Timestamp dt:dt=""r8"">29802534232382</Timestamp><Current dt:dt=""r8"">0</Current><DateUtc dt:dt=""string"">2024-06-10T17:50:48Z</DateUtc></FrequencyChange></FrequencyChanges></Clock>\n",2.0.10.252,2.0.10.356,2.0.10.356,Professional,1.0.0.1
Proc1,,List9,,,,,,,487,3,475,475,1101,3,0,,12,,,,,,,,,,,,,,,,,,,,,,,6,1,6,,,,,,,,,,,,,,,,DelayDiscountingTitrated Backup1,06-10-2024,13:50:48,6/10/2024 5:50:48 PM,2038,1,13,DelayDiscountingTitrated Backup1-2038-1,-241760376,1,60.018,"<?xml version=""1.0""?>\n<Clock xmlns:dt=""urn:schemas-microsoft-com:datatypes""><Description dt:dt=""string"">E-Prime Primary Realtime Clock</Description><StartTime><Timestamp dt:dt=""int"">0</Timestamp><DateUtc dt:dt=""string"">2024-06-10T17:50:48Z</DateUtc></StartTime><FrequencyChanges><FrequencyChange><Frequency dt:dt=""r8"">10000000</Frequency><Timestamp dt:dt=""r8"">29802534232382</Timestamp><Current dt:dt=""r8"">0</Current><DateUtc dt:dt=""string"">2024-06-10T17:50:48Z</DateUtc></FrequencyChange></FrequencyChanges></Clock>\n",2.0.10.252,2.0.10.356,2.0.10.356,Professional,1.0.0.1
Proc1,,List9,,,,,,,493,3,487,487,896,3,0,,6,,,,,,,,,,,,,,,,,,,,,,,7,1,7,,,,,,,,,,,,,,,,DelayDiscountingTitrated Backup1,06-10-2024,13:50:48,6/10/2024 5:50:48 PM,2038,1,13,DelayDiscountingTitrated Backup1-2038-1,-241760376,1,60.018,"<?xml version=""1.0""?>\n<Clock xmlns:dt=""urn:schemas-microsoft-com:datatypes""><Description dt:dt=""string"">E-Prime Primary Realtime Clock</Description><StartTime><Timestamp dt:dt=""int"">0</Timestamp><DateUtc dt:dt=""string"">2024-06-10T17:50:48Z</DateUtc></StartTime><FrequencyChanges><FrequencyChange><Frequency dt:dt=""r8"">10000000</Frequency><Timestamp dt:dt=""r8"">29802534232382</Timestamp><Current dt:dt=""r8"">0</Current><DateUtc dt:dt=""string"">2024-06-10T17:50:48Z</DateUtc></FrequencyChange></FrequencyChanges></Clock>\n",2.0.10.252,2.0.10.356,2.0.10.356,Professional,1.0.0.1
Proc1,,List9,,,,,,,496,3,493,493,658,3,0,,3,,,,,,,,,,,,,,,,,,,,,,,8,1,8,,,,,,,,,,,,,,,,DelayDiscountingTitrated Backup1,06-10-2024,13:50:48,6/10/2024 5:50:48 PM,2038,1,13,DelayDiscountingTitrated Backup1-2038-1,-241760376,1,60.018,"<?xml version=""1.0""?>\n<Clock xmlns:dt=""urn:schemas-microsoft-com:datatypes""><Description dt:dt=""string"">E-Prime Primary Realtime Clock</Description><StartTime><Timestamp dt:dt=""int"">0</Timestamp><DateUtc dt:dt=""string"">2024-06-10T17:50:48Z</DateUtc></StartTime><FrequencyChanges><FrequencyChange><Frequency dt:dt=""r8"">10000000</Frequency><Timestamp dt:dt=""r8"">29802534232382</Timestamp><Current dt:dt=""r8"">0</Current><DateUtc dt:dt=""string"">2024-06-10T17:50:48Z</DateUtc></FrequencyChange></FrequencyChanges></Clock>\n",2.0.10.252,2.0.10.356,2.0.10.356,Professional,1.0.0.1
Proc1,,List9,,,,,,,498,3,496,496,455,3,0,,2,,,,,,,,,,,,,,,,,,,,,,,9,1,9,,,,,,,,,,,,,,,,DelayDiscountingTitrated Backup1,06-10-2024,13:50:48,6/10/2024 5:50:48 PM,2038,1,13,DelayDiscountingTitrated Backup1-2038-1,-241760376,1,60.018,"<?xml version=""1.0""?>\n<Clock xmlns:dt=""urn:schemas-microsoft-com:datatypes""><Description dt:dt=""string"">E-Prime Primary Realtime Clock</Description><StartTime><Timestamp dt:dt=""int"">0</Timestamp><DateUtc dt:dt=""string"">2024-06-10T17:50:48Z</DateUtc></StartTime><FrequencyChanges><FrequencyChange><Frequency dt:dt=""r8"">10000000</Frequency><Timestamp dt:dt=""r8"">29802534232382</Timestamp><Current dt:dt=""r8"">0</Current><DateUtc dt:dt=""string"">2024-06-10T17:50:48Z</DateUtc></FrequencyChange></FrequencyChanges></Clock>\n",2.0.10.252,2.0.10.356,2.0.10.356,Professional,1.0.0.1
Proc1,,List9,,,,,,,499,3,498,498,371,3,0,,1,,,,,,,,,,,,,,,,,,,,,,,10,1,10,,,,,,,,,,,,,,,,DelayDiscountingTitrated Backup1,06-10-2024,13:50:48,6/10/2024 5:50:48 PM,2038,1,13,DelayDiscountingTitrated Backup1-2038-1,-241760376,1,60.018,"<?xml version=""1.0""?>\n<Clock xmlns:dt=""urn:schemas-microsoft-com:datatypes""><Description dt:dt=""string"">E-Prime Primary Realtime Clock</Description><StartTime><Timestamp dt:dt=""int"">0</Timestamp><DateUtc dt:dt=""string"">2024-06-10T17:50:48Z</DateUtc></StartTime><FrequencyChanges><FrequencyChange><Frequency dt:dt=""r8"">10000000</Frequency><Timestamp dt:dt=""r8"">29802534232382</Timestamp><Current dt:dt=""r8"">0</Current><DateUtc dt:dt=""string"">2024-06-10T17:50:48Z</DateUtc></FrequencyChange></FrequencyChanges></Clock>\n",2.0.10.252,2.0.10.356,2.0.10.356,Professional,1.0.0.1
Proc1,,List9,,,,,,,499,3,498,499,451,3,0,,,,,,,,,,,,,,,,,,,,,,,,,11,1,11,,,,,,,,,,,,,,,,DelayDiscountingTitrated Backup1,06-10-2024,13:50:48,6/10/2024 5:50:48 PM,2038,1,13,DelayDiscountingTitrated Backup1-2038-1,-241760376,1,60.018,"<?xml version=""1.0""?>\n<Clock xmlns:dt=""urn:schemas-microsoft-com:datatypes""><Description dt:dt=""string"">E-Prime Primary Realtime Clock</Description><StartTime><Timestamp dt:dt=""int"">0</Timestamp><DateUtc dt:dt=""string"">2024-06-10T17:50:48Z</DateUtc></StartTime><FrequencyChanges><FrequencyChange><Frequency dt:dt=""r8"">10000000</Frequency><Timestamp dt:dt=""r8"">29802534232382</Timestamp><Current dt:dt=""r8"">0</Current><DateUtc dt:dt=""string"">2024-06-10T17:50:48Z</DateUtc></FrequencyChange></FrequencyChanges></Clock>\n",2.0.10.252,2.0.10.356,2.0.10.356,Professional,1.0.0.1
discount1,,List4,,,,,,,,,,,,,,,,800,1 month,,30,,,,,,,,,,,,,,,,,,,,,,3,1,1,,,,,,,,,,,,,DelayDiscountingTitrated Backup1,06-10-2024,13:50:48,6/10/2024 5:50:48 PM,2038,1,13,DelayDiscountingTitrated Backup1-2038-1,-241760376,1,60.018,"<?xml version=""1.0""?>\n<Clock xmlns:dt=""urn:schemas-microsoft-com:datatypes""><Description dt:dt=""string"">E-Prime Primary Realtime Clock</Description><StartTime><Timestamp dt:dt=""int"">0</Timestamp><DateUtc dt:dt=""string"">2024-06-10T17:50:48Z</DateUtc></StartTime><FrequencyChanges><FrequencyChange><Frequency dt:dt=""r8"">10000000</Frequency><Timestamp dt:dt=""r8"">29802534232382</Timestamp><Current dt:dt=""r8"">0</Current><DateUtc dt:dt=""string"">2024-06-10T17:50:48Z</DateUtc></FrequencyChange></FrequencyChanges></Clock>\n",2.0.10.252,2.0.10.356,2.0.10.356,Professional,1.0.0.1
onemthproc,,List1,,,,,,,,,,,,,,,,,,,,,,2,1,4,4,,,,,,,,,,,,,,,,,,,,,,,,,,,,,,,DelayDiscountingTitrated Backup1,06-10-2024,13:50:48,6/10/2024 5:50:48 PM,2038,1,13,DelayDiscountingTitrated Backup1-2038-1,-241760376,1,60.018,"<?xml version=""1.0""?>\n<Clock xmlns:dt=""urn:schemas-microsoft-com:datatypes""><Description dt:dt=""string"">E-Prime Primary Realtime Clock</Description><StartTime><Timestamp dt:dt=""int"">0</Timestamp><DateUtc dt:dt=""string"">2024-06-10T17:50:48Z</DateUtc></StartTime><FrequencyChanges><FrequencyChange><Frequency dt:dt=""r8"">10000000</Frequency><Timestamp dt:dt=""r8"">29802534232382</Timestamp><Current dt:dt=""r8"">0</Current><DateUtc dt:dt=""string"">2024-06-10T17:50:48Z</DateUtc></FrequencyChange></FrequencyChanges></Clock>\n",2.0.10.252,2.0.10.356,2.0.10.356,Professional,1.0.0.1
Init5,,List13,,,5244,1,0,,250,1,500,,,,,,,,,,,,,,,,,,,,,,,,,,,,,,,,,,,1,1,1,,,,,,,,,,DelayDiscountingTitrated Backup1,06-10-2024,13:50:48,6/10/2024 5:50:48 PM,2038,1,13,DelayDiscountingTitrated Backup1-2038-1,-241760376,1,60.018,"<?xml version=""1.0""?>\n<Clock xmlns:dt=""urn:schemas-microsoft-com:datatypes""><Description dt:dt=""string"">E-Prime Primary Realtime Clock</Description><StartTime><Timestamp dt:dt=""int"">0</Timestamp><DateUtc dt:dt=""string"">2024-06-10T17:50:48Z</DateUtc></StartTime><FrequencyChanges><FrequencyChange><Frequency dt:dt=""r8"">10000000</Frequency><Timestamp dt:dt=""r8"">29802534232382</Timestamp><Current dt:dt=""r8"">0</Current><DateUtc dt:dt=""string"">2024-06-10T17:50:48Z</DateUtc></FrequencyChange></FrequencyChanges></Clock>\n",2.0.10.252,2.0.10.356,2.0.10.356,Professional,1.0.0.1
Proc5,,List13,,,,,,,125,1,250,250,346,1,0,,125,,,,,,,,,,,,,,,,,,,,,,,,,,,,,2,1,2,,,,,,,,,,DelayDiscountingTitrated Backup1,06-10-2024,13:50:48,6/10/2024 5:50:48 PM,2038,1,13,DelayDiscountingTitrated Backup1-2038-1,-241760376,1,60.018,"<?xml version=""1.0""?>\n<Clock xmlns:dt=""urn:schemas-microsoft-com:datatypes""><Description dt:dt=""string"">E-Prime Primary Realtime Clock</Description><StartTime><Timestamp dt:dt=""int"">0</Timestamp><DateUtc dt:dt=""string"">2024-06-10T17:50:48Z</DateUtc></StartTime><FrequencyChanges><FrequencyChange><Frequency dt:dt=""r8"">10000000</Frequency><Timestamp dt:dt=""r8"">29802534232382</Timestamp><Current dt:dt=""r8"">0</Current><DateUtc dt:dt=""string"">2024-06-10T17:50:48Z</DateUtc></FrequencyChange></FrequencyChanges></Clock>\n",2.0.10.252,2.0.10.356,2.0.10.356,Professional,1.0.0.1
Proc5,,List13,,,,,,,63,1,125,125,427,1,0,,62,,,,,,,,,,,,,,,,,,,,,,,,,,,,,3,1,3,,,,,,,,,,DelayDiscountingTitrated Backup1,06-10-2024,13:50:48,6/10/2024 5:50:48 PM,2038,1,13,DelayDiscountingTitrated Backup1-2038-1,-241760376,1,60.018,"<?xml version=""1.0""?>\n<Clock xmlns:dt=""urn:schemas-microsoft-com:datatypes""><Description dt:dt=""string"">E-Prime Primary Realtime Clock</Description><StartTime><Timestamp dt:dt=""int"">0</Timestamp><DateUtc dt:dt=""string"">2024-06-10T17:50:48Z</DateUtc></StartTime><FrequencyChanges><FrequencyChange><Frequency dt:dt=""r8"">10000000</Frequency><Timestamp dt:dt=""r8"">29802534232382</Timestamp><Current dt:dt=""r8"">0</Current><DateUtc dt:dt=""string"">2024-06-10T17:50:48Z</DateUtc></FrequencyChange></FrequencyChanges></Clock>\n",2.0.10.252,2.0.10.356,2.0.10.356,Professional,1.0.0.1
Proc5,,List13,,,,,,,31,1,63,63,320,1,0,,32,,,,,,,,,,,,,,,,,,,,,,,,,,,,,4,1,4,,,,,,,,,,DelayDiscountingTitrated Backup1,06-10-2024,13:50:48,6/10/2024 5:50:48 PM,2038,1,13,DelayDiscountingTitrated Backup1-2038-1,-241760376,1,60.018,"<?xml version=""1.0""?>\n<Clock xmlns:dt=""urn:schemas-microsoft-com:datatypes""><Description dt:dt=""string"">E-Prime Primary Realtime Clock</Description><StartTime><Timestamp dt:dt=""int"">0</Timestamp><DateUtc dt:dt=""string"">2024-06-10T17:50:48Z</DateUtc></StartTime><FrequencyChanges><FrequencyChange><Frequency dt:dt=""r8"">10000000</Frequency><Timestamp dt:dt=""r8"">29802534232382</Timestamp><Current dt:dt=""r8"">0</Current><DateUtc dt:dt=""string"">2024-06-10T17:50:48Z</DateUtc></FrequencyChange></FrequencyChanges></Clock>\n",2.0.10.252,2.0.10.356,2.0.10.356,Professional,1.0.0.1
Proc5,,List13,,,,,,,15,1,31,31,642,1,0,,16,,,,,,,,,,,,,,,,,,,,,,,,,,,,,5,1,5,,,,,,,,,,DelayDiscountingTitrated Backup1,06-10-2024,13:50:48,6/10/2024 5:50:48 PM,2038,1,13,DelayDiscountingTitrated Backup1-2038-1,-241760376,1,60.018,"<?xml version=""1.0""?>\n<Clock xmlns:dt=""urn:schemas-microsoft-com:datatypes""><Description dt:dt=""string"">E-Prime Primary Realtime Clock</Description><StartTime><Timestamp dt:dt=""int"">0</Timestamp><DateUtc dt:dt=""string"">2024-06-10T17:50:48Z</DateUtc></StartTime><FrequencyChanges><FrequencyChange><Frequency dt:dt=""r8"">10000000</Frequency><Timestamp dt:dt=""r8"">29802534232382</Timestamp><Current dt:dt=""r8"">0</Current><DateUtc dt:dt=""string"">2024-06-10T17:50:48Z</DateUtc></FrequencyChange></FrequencyChanges></Clock>\n",2.0.10.252,2.0.10.356,2.0.10.356,Professional,1.0.0.1
Proc5,,List13,,,,,,,7,1,15,15,423,1,0,,8,,,,,,,,,,,,,,,,,,,,,,,,,,,,,6,1,6,,,,,,,,,,DelayDiscountingTitrated Backup1,06-10-2024,13:50:48,6/10/2024 5:50:48 PM,2038,1,13,DelayDiscountingTitrated Backup1-2038-1,-241760376,1,60.018,"<?xml version=""1.0""?>\n<Clock xmlns:dt=""urn:schemas-microsoft-com:datatypes""><Description dt:dt=""string"">E-Prime Primary Realtime Clock</Description><StartTime><Timestamp dt:dt=""int"">0</Timestamp><DateUtc dt:dt=""string"">2024-06-10T17:50:48Z</DateUtc></StartTime><FrequencyChanges><FrequencyChange><Frequency dt:dt=""r8"">10000000</Frequency><Timestamp dt:dt=""r8"">29802534232382</Timestamp><Current dt:dt=""r8"">0</Current><DateUtc dt:dt=""string"">2024-06-10T17:50:48Z</DateUtc></FrequencyChange></FrequencyChanges></Clock>\n",2.0.10.252,2.0.10.356,2.0.10.356,Professional,1.0.0.1
Proc5,,List13,,,,,,,3,1,7,7,661,1,0,,4,,,,,,,,,,,,,,,,,,,,,,,,,,,,,7,1,7,,,,,,,,,,DelayDiscountingTitrated Backup1,06-10-2024,13:50:48,6/10/2024 5:50:48 PM,2038,1,13,DelayDiscountingTitrated Backup1-2038-1,-241760376,1,60.018,"<?xml version=""1.0""?>\n<Clock xmlns:dt=""urn:schemas-microsoft-com:datatypes""><Description dt:dt=""string"">E-Prime Primary Realtime Clock</Description><StartTime><Timestamp dt:dt=""int"">0</Timestamp><DateUtc dt:dt=""string"">2024-06-10T17:50:48Z</DateUtc></StartTime><FrequencyChanges><FrequencyChange><Frequency dt:dt=""r8"">10000000</Frequency><Timestamp dt:dt=""r8"">29802534232382</Timestamp><Current dt:dt=""r8"">0</Current><DateUtc dt:dt=""string"">2024-06-10T17:50:48Z</DateUtc></FrequencyChange></FrequencyChanges></Clock>\n",2.0.10.252,2.0.10.356,2.0.10.356,Professional,1.0.0.1
Proc5,,List13,,,,,,,1,1,3,3,496,1,0,,2,,,,,,,,,,,,,,,,,,,,,,,,,,,,,8,1,8,,,,,,,,,,DelayDiscountingTitrated Backup1,06-10-2024,13:50:48,6/10/2024 5:50:48 PM,2038,1,13,DelayDiscountingTitrated Backup1-2038-1,-241760376,1,60.018,"<?xml version=""1.0""?>\n<Clock xmlns:dt=""urn:schemas-microsoft-com:datatypes""><Description dt:dt=""string"">E-Prime Primary Realtime Clock</Description><StartTime><Timestamp dt:dt=""int"">0</Timestamp><DateUtc dt:dt=""string"">2024-06-10T17:50:48Z</DateUtc></StartTime><FrequencyChanges><FrequencyChange><Frequency dt:dt=""r8"">10000000</Frequency><Timestamp dt:dt=""r8"">29802534232382</Timestamp><Current dt:dt=""r8"">0</Current><DateUtc dt:dt=""string"">2024-06-10T17:50:48Z</DateUtc></FrequencyChange></FrequencyChanges></Clock>\n",2.0.10.252,2.0.10.356,2.0.10.356,Professional,1.0.0.1
Proc5,,List13,,,,,,,1,1,,1,763,1,0,,,,,,,,,,,,,,,,,,,,,,,,,,,,,,,9,1,9,,,,,,,,,,DelayDiscountingTitrated Backup1,06-10-2024,13:50:48,6/10/2024 5:50:48 PM,2038,1,13,DelayDiscountingTitrated Backup1-2038-1,-241760376,1,60.018,"<?xml version=""1.0""?>\n<Clock xmlns:dt=""urn:schemas-microsoft-com:datatypes""><Description dt:dt=""string"">E-Prime Primary Realtime Clock</Description><StartTime><Timestamp dt:dt=""int"">0</Timestamp><DateUtc dt:dt=""string"">2024-06-10T17:50:48Z</DateUtc></StartTime><FrequencyChanges><FrequencyChange><Frequency dt:dt=""r8"">10000000</Frequency><Timestamp dt:dt=""r8"">29802534232382</Timestamp><Current dt:dt=""r8"">0</Current><DateUtc dt:dt=""string"">2024-06-10T17:50:48Z</DateUtc></FrequencyChange></FrequencyChanges></Clock>\n",2.0.10.252,2.0.10.356,2.0.10.356,Professional,1.0.0.1
discount5,,List8,,,,,,,,,,,,,,,,500,15 years,,5475,,,,,,,,,,,,,,,,,,,,,,,,,,,,2,2,1,,,,,,,DelayDiscountingTitrated Backup1,06-10-2024,13:50:48,6/10/2024 5:50:48 PM,2038,1,13,DelayDiscountingTitrated Backup1-2038-1,-241760376,1,60.018,"<?xml version=""1.0""?>\n<Clock xmlns:dt=""urn:schemas-microsoft-com:datatypes""><Description dt:dt=""string"">E-Prime Primary Realtime Clock</Description><StartTime><Timestamp dt:dt=""int"">0</Timestamp><DateUtc dt:dt=""string"">2024-06-10T17:50:48Z</DateUtc></StartTime><FrequencyChanges><FrequencyChange><Frequency dt:dt=""r8"">10000000</Frequency><Timestamp dt:dt=""r8"">29802534232382</Timestamp><Current dt:dt=""r8"">0</Current><DateUtc dt:dt=""string"">2024-06-10T17:50:48Z</DateUtc></FrequencyChange></FrequencyChanges></Clock>\n",2.0.10.252,2.0.10.356,2.0.10.356,Professional,1.0.0.1
fifteenyearproc,,List1,,,,,,,,,,,,,,,,,,,,,,6,1,5,5,,,,,,,,,,,,,,,,,,,,,,,,,,,,,,,DelayDiscountingTitrated Backup1,06-10-2024,13:50:48,6/10/2024 5:50:48 PM,2038,1,13,DelayDiscountingTitrated Backup1-2038-1,-241760376,1,60.018,"<?xml version=""1.0""?>\n<Clock xmlns:dt=""urn:schemas-microsoft-com:datatypes""><Description dt:dt=""string"">E-Prime Primary Realtime Clock</Description><StartTime><Timestamp dt:dt=""int"">0</Timestamp><DateUtc dt:dt=""string"">2024-06-10T17:50:48Z</DateUtc></StartTime><FrequencyChanges><FrequencyChange><Frequency dt:dt=""r8"">10000000</Frequency><Timestamp dt:dt=""r8"">29802534232382</Timestamp><Current dt:dt=""r8"">0</Current><DateUtc dt:dt=""string"">2024-06-10T17:50:48Z</DateUtc></FrequencyChange></FrequencyChanges></Clock>\n",2.0.10.252,2.0.10.356,2.0.10.356,Professional,1.0.0.1
Init4,,List12,,,1256,1,0,,400,1,800,,,,,,,,,,,,,,,,,,,,,,,,,,,,,,,,,,,,,,,,,1,1,1,,,,DelayDiscountingTitrated Backup1,06-10-2024,13:50:48,6/10/2024 5:50:48 PM,2038,1,13,DelayDiscountingTitrated Backup1-2038-1,-241760376,1,60.018,"<?xml version=""1.0""?>\n<Clock xmlns:dt=""urn:schemas-microsoft-com:datatypes""><Description dt:dt=""string"">E-Prime Primary Realtime Clock</Description><StartTime><Timestamp dt:dt=""int"">0</Timestamp><DateUtc dt:dt=""string"">2024-06-10T17:50:48Z</DateUtc></StartTime><FrequencyChanges><FrequencyChange><Frequency dt:dt=""r8"">10000000</Frequency><Timestamp dt:dt=""r8"">29802534232382</Timestamp><Current dt:dt=""r8"">0</Current><DateUtc dt:dt=""string"">2024-06-10T17:50:48Z</DateUtc></FrequencyChange></FrequencyChanges></Clock>\n",2.0.10.252,2.0.10.356,2.0.10.356,Professional,1.0.0.1
Proc4,,List12,,,,,,,200,1,400,400,325,1,0,,200,,,,,,,,,,,,,,,,,,,,,,,,,,,,,,,,,,,2,1,2,,,,DelayDiscountingTitrated Backup1,06-10-2024,13:50:48,6/10/2024 5:50:48 PM,2038,1,13,DelayDiscountingTitrated Backup1-2038-1,-241760376,1,60.018,"<?xml version=""1.0""?>\n<Clock xmlns:dt=""urn:schemas-microsoft-com:datatypes""><Description dt:dt=""string"">E-Prime Primary Realtime Clock</Description><StartTime><Timestamp dt:dt=""int"">0</Timestamp><DateUtc dt:dt=""string"">2024-06-10T17:50:48Z</DateUtc></StartTime><FrequencyChanges><FrequencyChange><Frequency dt:dt=""r8"">10000000</Frequency><Timestamp dt:dt=""r8"">29802534232382</Timestamp><Current dt:dt=""r8"">0</Current><DateUtc dt:dt=""string"">2024-06-10T17:50:48Z</DateUtc></FrequencyChange></FrequencyChanges></Clock>\n",2.0.10.252,2.0.10.356,2.0.10.356,Professional,1.0.0.1
Proc4,,List12,,,,,,,100,1,200,200,318,1,0,,100,,,,,,,,,,,,,,,,,,,,,,,,,,,,,,,,,,,3,1,3,,,,DelayDiscountingTitrated Backup1,06-10-2024,13:50:48,6/10/2024 5:50:48 PM,2038,1,13,DelayDiscountingTitrated Backup1-2038-1,-241760376,1,60.018,"<?xml version=""1.0""?>\n<Clock xmlns:dt=""urn:schemas-microsoft-com:datatypes""><Description dt:dt=""string"">E-Prime Primary Realtime Clock</Description><StartTime><Timestamp dt:dt=""int"">0</Timestamp><DateUtc dt:dt=""string"">2024-06-10T17:50:48Z</DateUtc></StartTime><FrequencyChanges><FrequencyChange><Frequency dt:dt=""r8"">10000000</Frequency><Timestamp dt:dt=""r8"">29802534232382</Timestamp><Current dt:dt=""r8"">0</Current><DateUtc dt:dt=""string"">2024-06-10T17:50:48Z</DateUtc></FrequencyChange></FrequencyChanges></Clock>\n",2.0.10.252,2.0.10.356,2.0.10.356,Professional,1.0.0.1
Proc4,,List12,,,,,,,50,1,100,100,288,1,0,,50,,,,,,,,,,,,,,,,,,,,,,,,,,,,,,,,,,,4,1,4,,,,DelayDiscountingTitrated Backup1,06-10-2024,13:50:48,6/10/2024 5:50:48 PM,2038,1,13,DelayDiscountingTitrated Backup1-2038-1,-241760376,1,60.018,"<?xml version=""1.0""?>\n<Clock xmlns:dt=""urn:schemas-microsoft-com:datatypes""><Description dt:dt=""string"">E-Prime Primary Realtime Clock</Description><StartTime><Timestamp dt:dt=""int"">0</Timestamp><DateUtc dt:dt=""string"">2024-06-10T17:50:48Z</DateUtc></StartTime><FrequencyChanges><FrequencyChange><Frequency dt:dt=""r8"">10000000</Frequency><Timestamp dt:dt=""r8"">29802534232382</Timestamp><Current dt:dt=""r8"">0</Current><DateUtc dt:dt=""string"">2024-06-10T17:50:48Z</DateUtc></FrequencyChange></FrequencyChanges></Clock>\n",2.0.10.252,2.0.10.356,2.0.10.356,Professional,1.0.0.1
Proc4,,List12,,,,,,,25,1,50,50,387,1,0,,25,,,,,,,,,,,,,,,,,,,,,,,,,,,,,,,,,,,5,1,5,,,,DelayDiscountingTitrated Backup1,06-10-2024,13:50:48,6/10/2024 5:50:48 PM,2038,1,13,DelayDiscountingTitrated Backup1-2038-1,-241760376,1,60.018,"<?xml version=""1.0""?>\n<Clock xmlns:dt=""urn:schemas-microsoft-com:datatypes""><Description dt:dt=""string"">E-Prime Primary Realtime Clock</Description><StartTime><Timestamp dt:dt=""int"">0</Timestamp><DateUtc dt:dt=""string"">2024-06-10T17:50:48Z</DateUtc></StartTime><FrequencyChanges><FrequencyChange><Frequency dt:dt=""r8"">10000000</Frequency><Timestamp dt:dt=""r8"">29802534232382</Timestamp><Current dt:dt=""r8"">0</Current><DateUtc dt:dt=""string"">2024-06-10T17:50:48Z</DateUtc></FrequencyChange></FrequencyChanges></Clock>\n",2.0.10.252,2.0.10.356,2.0.10.356,Professional,1.0.0.1
Proc4,,List12,,,,,,,13,1,25,25,642,1,0,,12,,,,,,,,,,,,,,,,,,,,,,,,,,,,,,,,,,,6,1,6,,,,DelayDiscountingTitrated Backup1,06-10-2024,13:50:48,6/10/2024 5:50:48 PM,2038,1,13,DelayDiscountingTitrated Backup1-2038-1,-241760376,1,60.018,"<?xml version=""1.0""?>\n<Clock xmlns:dt=""urn:schemas-microsoft-com:datatypes""><Description dt:dt=""string"">E-Prime Primary Realtime Clock</Description><StartTime><Timestamp dt:dt=""int"">0</Timestamp><DateUtc dt:dt=""string"">2024-06-10T17:50:48Z</DateUtc></StartTime><FrequencyChanges><FrequencyChange><Frequency dt:dt=""r8"">10000000</Frequency><Timestamp dt:dt=""r8"">29802534232382</Timestamp><Current dt:dt=""r8"">0</Current><DateUtc dt:dt=""string"">2024-06-10T17:50:48Z</DateUtc></FrequencyChange></FrequencyChanges></Clock>\n",2.0.10.252,2.0.10.356,2.0.10.356,Professional,1.0.0.1
Proc4,,List12,,,,,,,7,1,13,13,968,1,0,,6,,,,,,,,,,,,,,,,,,,,,,,,,,,,,,,,,,,7,1,7,,,,DelayDiscountingTitrated Backup1,06-10-2024,13:50:48,6/10/2024 5:50:48 PM,2038,1,13,DelayDiscountingTitrated Backup1-2038-1,-241760376,1,60.018,"<?xml version=""1.0""?>\n<Clock xmlns:dt=""urn:schemas-microsoft-com:datatypes""><Description dt:dt=""string"">E-Prime Primary Realtime Clock</Description><StartTime><Timestamp dt:dt=""int"">0</Timestamp><DateUtc dt:dt=""string"">2024-06-10T17:50:48Z</DateUtc></StartTime><FrequencyChanges><FrequencyChange><Frequency dt:dt=""r8"">10000000</Frequency><Timestamp dt:dt=""r8"">29802534232382</Timestamp><Current dt:dt=""r8"">0</Current><DateUtc dt:dt=""string"">2024-06-10T17:50:48Z</DateUtc></FrequencyChange></FrequencyChanges></Clock>\n",2.0.10.252,2.0.10.356,2.0.10.356,Professional,1.0.0.1
Proc4,,List12,,,,,,,3,1,7,7,1000,1,0,,4,,,,,,,,,,,,,,,,,,,,,,,,,,,,,,,,,,,8,1,8,,,,DelayDiscountingTitrated Backup1,06-10-2024,13:50:48,6/10/2024 5:50:48 PM,2038,1,13,DelayDiscountingTitrated Backup1-2038-1,-241760376,1,60.018,"<?xml version=""1.0""?>\n<Clock xmlns:dt=""urn:schemas-microsoft-com:datatypes""><Description dt:dt=""string"">E-Prime Primary Realtime Clock</Description><StartTime><Timestamp dt:dt=""int"">0</Timestamp><DateUtc dt:dt=""string"">2024-06-10T17:50:48Z</DateUtc></StartTime><FrequencyChanges><FrequencyChange><Frequency dt:dt=""r8"">10000000</Frequency><Timestamp dt:dt=""r8"">29802534232382</Timestamp><Current dt:dt=""r8"">0</Current><DateUtc dt:dt=""string"">2024-06-10T17:50:48Z</DateUtc></FrequencyChange></FrequencyChanges></Clock>\n",2.0.10.252,2.0.10.356,2.0.10.356,Professional,1.0.0.1
Proc4,,List12,,,,,,,1,1,3,3,854,1,0,,2,,,,,,,,,,,,,,,,,,,,,,,,,,,,,,,,,,,9,1,9,,,,DelayDiscountingTitrated Backup1,06-10-2024,13:50:48,6/10/2024 5:50:48 PM,2038,1,13,DelayDiscountingTitrated Backup1-2038-1,-241760376,1,60.018,"<?xml version=""1.0""?>\n<Clock xmlns:dt=""urn:schemas-microsoft-com:datatypes""><Description dt:dt=""string"">E-Prime Primary Realtime Clock</Description><StartTime><Timestamp dt:dt=""int"">0</Timestamp><DateUtc dt:dt=""string"">2024-06-10T17:50:48Z</DateUtc></StartTime><FrequencyChanges><FrequencyChange><Frequency dt:dt=""r8"">10000000</Frequency><Timestamp dt:dt=""r8"">29802534232382</Timestamp><Current dt:dt=""r8"">0</Current><DateUtc dt:dt=""string"">2024-06-10T17:50:48Z</DateUtc></FrequencyChange></FrequencyChanges></Clock>\n",2.0.10.252,2.0.10.356,2.0.10.356,Professional,1.0.0.1
Proc4,,List12,,,,,,,1,1,,1,1635,1,0,,,,,,,,,,,,,,,,,,,,,,,,,,,,,,,,,,,,,10,1,10,,,,DelayDiscountingTitrated Backup1,06-10-2024,13:50:48,6/10/2024 5:50:48 PM,2038,1,13,DelayDiscountingTitrated Backup1-2038-1,-241760376,1,60.018,"<?xml version=""1.0""?>\n<Clock xmlns:dt=""urn:schemas-microsoft-com:datatypes""><Description dt:dt=""string"">E-Prime Primary Realtime Clock</Description><StartTime><Timestamp dt:dt=""int"">0</Timestamp><DateUtc dt:dt=""string"">2024-06-10T17:50:48Z</DateUtc></StartTime><FrequencyChanges><FrequencyChange><Frequency dt:dt=""r8"">10000000</Frequency><Timestamp dt:dt=""r8"">29802534232382</Timestamp><Current dt:dt=""r8"">0</Current><DateUtc dt:dt=""string"">2024-06-10T17:50:48Z</DateUtc></FrequencyChange></FrequencyChanges></Clock>\n",2.0.10.252,2.0.10.356,2.0.10.356,Professional,1.0.0.1
discount4,,List7,,,,,,,,,,,,,,,,800,5 years,,1825,,,,,,,,,,,,,,,,,,,,,,,,,,,,,,,,,,3,1,1,DelayDiscountingTitrated Backup1,06-10-2024,13:50:48,6/10/2024 5:50:48 PM,2038,1,13,DelayDiscountingTitrated Backup1-2038-1,-241760376,1,60.018,"<?xml version=""1.0""?>\n<Clock xmlns:dt=""urn:schemas-microsoft-com:datatypes""><Description dt:dt=""string"">E-Prime Primary Realtime Clock</Description><StartTime><Timestamp dt:dt=""int"">0</Timestamp><DateUtc dt:dt=""string"">2024-06-10T17:50:48Z</DateUtc></StartTime><FrequencyChanges><FrequencyChange><Frequency dt:dt=""r8"">10000000</Frequency><Timestamp dt:dt=""r8"">29802534232382</Timestamp><Current dt:dt=""r8"">0</Current><DateUtc dt:dt=""string"">2024-06-10T17:50:48Z</DateUtc></FrequencyChange></FrequencyChanges></Clock>\n",2.0.10.252,2.0.10.356,2.0.10.356,Professional,1.0.0.1
fiveyearproc,,List1,,,,,,,,,,,,,,,,,,,,,,5,1,6,6,,,,,,,,,,,,,,,,,,,,,,,,,,,,,,,DelayDiscountingTitrated Backup1,06-10-2024,13:50:48,6/10/2024 5:50:48 PM,2038,1,13,DelayDiscountingTitrated Backup1-2038-1,-241760376,1,60.018,"<?xml version=""1.0""?>\n<Clock xmlns:dt=""urn:schemas-microsoft-com:datatypes""><Description dt:dt=""string"">E-Prime Primary Realtime Clock</Description><StartTime><Timestamp dt:dt=""int"">0</Timestamp><DateUtc dt:dt=""string"">2024-06-10T17:50:48Z</DateUtc></StartTime><FrequencyChanges><FrequencyChange><Frequency dt:dt=""r8"">10000000</Frequency><Timestamp dt:dt=""r8"">29802534232382</Timestamp><Current dt:dt=""r8"">0</Current><DateUtc dt:dt=""string"">2024-06-10T17:50:48Z</DateUtc></FrequencyChange></FrequencyChanges></Clock>\n",2.0.10.252,2.0.10.356,2.0.10.356,Professional,1.0.0.1
,,,,,,,,,,,,,,,,,,,,,,,,,,,,,,,,,,,,,,,,,,,,,,,,,,,,,,,,,,DelayDiscountingTitrated Backup1,06-10-2024,13:50:48,6/10/2024 5:50:48 PM,2038,1,13,DelayDiscountingTitrated Backup1-2038-1,-241760376,1,60.018,"<?xml version=""1.0""?>\n<Clock xmlns:dt=""urn:schemas-microsoft-com:datatypes""><Description dt:dt=""string"">E-Prime Primary Realtime Clock</Description><StartTime><Timestamp dt:dt=""int"">0</Timestamp><DateUtc dt:dt=""string"">2024-06-10T17:50:48Z</DateUtc></StartTime><FrequencyChanges><FrequencyChange><Frequency dt:dt=""r8"">10000000</Frequency><Timestamp dt:dt=""r8"">29802534232382</Timestamp><Current dt:dt=""r8"">0</Current><DateUtc dt:dt=""string"">2024-06-10T17:50:48Z</DateUtc></FrequencyChange></FrequencyChanges></Clock>\n",2.0.10.252,2.0.10.356,2.0.10.356,Professional,1.0.0.1
