Procedure,List2,Running,List2.Cycle,List2.Sample,Slide2.DEVICE,Slide2.RT,Slide2.RESP,Slide4.RT,Slide4.RESP,immed3,respprev,prevalue,imstring,Slide1.DEVICE,Slide1.RT,Slide1.RESP,Slide5.RT,Slide5.RESP,immed5,immed,delaypd,List3,timedays,List3.Cycle,List3.Sample,List1,List1.Cycle,List1.Sample,roundnumber,TextDisplay11.DEVICE,List13,List13.Cycle,List13.Sample,List8,List8.Cycle,List8.Sample,List9,List9.Cycle,List9.Sample,List4,List4.Cycle,List4.Sample,List11,List11.Cycle,List11.Sample,List6,List6.Cycle,List6.Sample,List12,List12.Cycle,List12.Sample,List7,List7.Cycle,List7.Sample,List10,List10.Cycle,List10.Sample,List5,List5.Cycle,List5.Sample,Experiment,SessionDate,SessionTime,SessionStartDateTimeUtc,Subject,Session,Age,DataFile.Basename,RandomSeed,Group,Display.RefreshRate,Clock.Information,StudioVersion,RuntimeVersion,RuntimeVersionExpected,RuntimeCapabilities,ExperimentVersion,TextDisplay14.DEVICE,Slide3.DEVICE
TrialProcInit,1,List2,1,1,Keyboard,2214,3,0,,900,3,800,,,,,,,,,,,,,,,,,,,,,,,,,,,,,,,,,,,,,,,,,,,,,,,,,DelayDiscountingTitrated,01-15-2025,13:02:56,1/15/2025 6:02:56 PM,1064,1,8,DelayDiscountingTitrated-1064-1,1075032374,1,75.006,"<?xml version=""1.0""?>\n<Clock xmlns:dt=""urn:schemas-microsoft-com:datatypes""><Description dt:dt=""string"">E-Prime Primary Realtime Clock</Description><StartTime><Timestamp dt:dt=""int"">0</Timestamp><DateUtc dt:dt=""string"">2025-01-15T18:02:55Z</DateUtc></StartTime><FrequencyChanges><FrequencyChange><Frequency dt:dt=""r8"">10000000</Frequency><Timestamp dt:dt=""r8"">1577325348657</Timestamp><Current dt:dt=""r8"">0</Current><DateUtc dt:dt=""string"">2025-01-15T18:02:55Z</DateUtc></FrequencyChange></FrequencyChanges></Clock>\n",3.0.3.43,3.0.3.60,3.0.3.60,Full,1.0.0.8,Keyboard,Keyboard
TrialProc,2,List2,1,2,,,,,,850,1,900,900,Keyboard,2694,1,0,,50,,,,,,,,,,,,,,,,,,,,,,,,,,,,,,,,,,,,,,,,,,DelayDiscountingTitrated,01-15-2025,13:02:56,1/15/2025 6:02:56 PM,1064,1,8,DelayDiscountingTitrated-1064-1,1075032374,1,75.006,"<?xml version=""1.0""?>\n<Clock xmlns:dt=""urn:schemas-microsoft-com:datatypes""><Description dt:dt=""string"">E-Prime Primary Realtime Clock</Description><StartTime><Timestamp dt:dt=""int"">0</Timestamp><DateUtc dt:dt=""string"">2025-01-15T18:02:55Z</DateUtc></StartTime><FrequencyChanges><FrequencyChange><Frequency dt:dt=""r8"">10000000</Frequency><Timestamp dt:dt=""r8"">1577325348657</Timestamp><Current dt:dt=""r8"">0</Current><DateUtc dt:dt=""string"">2025-01-15T18:02:55Z</DateUtc></FrequencyChange></FrequencyChanges></Clock>\n",3.0.3.43,3.0.3.60,3.0.3.60,Full,1.0.0.8,Keyboard,Keyboard
TrialProc,3,List2,1,3,,,,,,875,3,850,850,Keyboard,3154,3,0,,25,,,,,,,,,,,,,,,,,,,,,,,,,,,,,,,,,,,,,,,,,,DelayDiscountingTitrated,01-15-2025,13:02:56,1/15/2025 6:02:56 PM,1064,1,8,DelayDiscountingTitrated-1064-1,1075032374,1,75.006,"<?xml version=""1.0""?>\n<Clock xmlns:dt=""urn:schemas-microsoft-com:datatypes""><Description dt:dt=""string"">E-Prime Primary Realtime Clock</Description><StartTime><Timestamp dt:dt=""int"">0</Timestamp><DateUtc dt:dt=""string"">2025-01-15T18:02:55Z</DateUtc></StartTime><FrequencyChanges><FrequencyChange><Frequency dt:dt=""r8"">10000000</Frequency><Timestamp dt:dt=""r8"">1577325348657</Timestamp><Current dt:dt=""r8"">0</Current><DateUtc dt:dt=""string"">2025-01-15T18:02:55Z</DateUtc></FrequencyChange></FrequencyChanges></Clock>\n",3.0.3.43,3.0.3.60,3.0.3.60,Full,1.0.0.8,Keyboard,Keyboard
TrialProc,4,List2,1,4,,,,,,863,1,875,875,Keyboard,1152,1,0,,12,,,,,,,,,,,,,,,,,,,,,,,,,,,,,,,,,,,,,,,,,,DelayDiscountingTitrated,01-15-2025,13:02:56,1/15/2025 6:02:56 PM,1064,1,8,DelayDiscountingTitrated-1064-1,1075032374,1,75.006,"<?xml version=""1.0""?>\n<Clock xmlns:dt=""urn:schemas-microsoft-com:datatypes""><Description dt:dt=""string"">E-Prime Primary Realtime Clock</Description><StartTime><Timestamp dt:dt=""int"">0</Timestamp><DateUtc dt:dt=""string"">2025-01-15T18:02:55Z</DateUtc></StartTime><FrequencyChanges><FrequencyChange><Frequency dt:dt=""r8"">10000000</Frequency><Timestamp dt:dt=""r8"">1577325348657</Timestamp><Current dt:dt=""r8"">0</Current><DateUtc dt:dt=""string"">2025-01-15T18:02:55Z</DateUtc></FrequencyChange></FrequencyChanges></Clock>\n",3.0.3.43,3.0.3.60,3.0.3.60,Full,1.0.0.8,Keyboard,Keyboard
TrialProc,5,List2,1,5,,,,,,857,1,863,863,Keyboard,766,1,0,,6,,,,,,,,,,,,,,,,,,,,,,,,,,,,,,,,,,,,,,,,,,DelayDiscountingTitrated,01-15-2025,13:02:56,1/15/2025 6:02:56 PM,1064,1,8,DelayDiscountingTitrated-1064-1,1075032374,1,75.006,"<?xml version=""1.0""?>\n<Clock xmlns:dt=""urn:schemas-microsoft-com:datatypes""><Description dt:dt=""string"">E-Prime Primary Realtime Clock</Description><StartTime><Timestamp dt:dt=""int"">0</Timestamp><DateUtc dt:dt=""string"">2025-01-15T18:02:55Z</DateUtc></StartTime><FrequencyChanges><FrequencyChange><Frequency dt:dt=""r8"">10000000</Frequency><Timestamp dt:dt=""r8"">1577325348657</Timestamp><Current dt:dt=""r8"">0</Current><DateUtc dt:dt=""string"">2025-01-15T18:02:55Z</DateUtc></FrequencyChange></FrequencyChanges></Clock>\n",3.0.3.43,3.0.3.60,3.0.3.60,Full,1.0.0.8,Keyboard,Keyboard
TrialProc,6,List2,1,6,,,,,,854,1,857,857,Keyboard,872,1,0,,3,,,,,,,,,,,,,,,,,,,,,,,,,,,,,,,,,,,,,,,,,,DelayDiscountingTitrated,01-15-2025,13:02:56,1/15/2025 6:02:56 PM,1064,1,8,DelayDiscountingTitrated-1064-1,1075032374,1,75.006,"<?xml version=""1.0""?>\n<Clock xmlns:dt=""urn:schemas-microsoft-com:datatypes""><Description dt:dt=""string"">E-Prime Primary Realtime Clock</Description><StartTime><Timestamp dt:dt=""int"">0</Timestamp><DateUtc dt:dt=""string"">2025-01-15T18:02:55Z</DateUtc></StartTime><FrequencyChanges><FrequencyChange><Frequency dt:dt=""r8"">10000000</Frequency><Timestamp dt:dt=""r8"">1577325348657</Timestamp><Current dt:dt=""r8"">0</Current><DateUtc dt:dt=""string"">2025-01-15T18:02:55Z</DateUtc></FrequencyChange></FrequencyChanges></Clock>\n",3.0.3.43,3.0.3.60,3.0.3.60,Full,1.0.0.8,Keyboard,Keyboard
TrialProc,7,List2,1,7,,,,,,856,3,854,854,Keyboard,3290,3,0,,2,,,,,,,,,,,,,,,,,,,,,,,,,,,,,,,,,,,,,,,,,,DelayDiscountingTitrated,01-15-2025,13:02:56,1/15/2025 6:02:56 PM,1064,1,8,DelayDiscountingTitrated-1064-1,1075032374,1,75.006,"<?xml version=""1.0""?>\n<Clock xmlns:dt=""urn:schemas-microsoft-com:datatypes""><Description dt:dt=""string"">E-Prime Primary Realtime Clock</Description><StartTime><Timestamp dt:dt=""int"">0</Timestamp><DateUtc dt:dt=""string"">2025-01-15T18:02:55Z</DateUtc></StartTime><FrequencyChanges><FrequencyChange><Frequency dt:dt=""r8"">10000000</Frequency><Timestamp dt:dt=""r8"">1577325348657</Timestamp><Current dt:dt=""r8"">0</Current><DateUtc dt:dt=""string"">2025-01-15T18:02:55Z</DateUtc></FrequencyChange></FrequencyChanges></Clock>\n",3.0.3.43,3.0.3.60,3.0.3.60,Full,1.0.0.8,Keyboard,Keyboard
TrialProc,8,List2,1,8,,,,,,855,1,856,856,Keyboard,1995,1,0,,1,,,,,,,,,,,,,,,,,,,,,,,,,,,,,,,,,,,,,,,,,,DelayDiscountingTitrated,01-15-2025,13:02:56,1/15/2025 6:02:56 PM,1064,1,8,DelayDiscountingTitrated-1064-1,1075032374,1,75.006,"<?xml version=""1.0""?>\n<Clock xmlns:dt=""urn:schemas-microsoft-com:datatypes""><Description dt:dt=""string"">E-Prime Primary Realtime Clock</Description><StartTime><Timestamp dt:dt=""int"">0</Timestamp><DateUtc dt:dt=""string"">2025-01-15T18:02:55Z</DateUtc></StartTime><FrequencyChanges><FrequencyChange><Frequency dt:dt=""r8"">10000000</Frequency><Timestamp dt:dt=""r8"">1577325348657</Timestamp><Current dt:dt=""r8"">0</Current><DateUtc dt:dt=""string"">2025-01-15T18:02:55Z</DateUtc></FrequencyChange></FrequencyChanges></Clock>\n",3.0.3.43,3.0.3.60,3.0.3.60,Full,1.0.0.8,Keyboard,Keyboard
TrialProc,9,List2,1,9,,,,,,855,1,856,855,Keyboard,1456,1,0,,,,,,,,,,,,,,,,,,,,,,,,,,,,,,,,,,,,,,,,,,,,DelayDiscountingTitrated,01-15-2025,13:02:56,1/15/2025 6:02:56 PM,1064,1,8,DelayDiscountingTitrated-1064-1,1075032374,1,75.006,"<?xml version=""1.0""?>\n<Clock xmlns:dt=""urn:schemas-microsoft-com:datatypes""><Description dt:dt=""string"">E-Prime Primary Realtime Clock</Description><StartTime><Timestamp dt:dt=""int"">0</Timestamp><DateUtc dt:dt=""string"">2025-01-15T18:02:55Z</DateUtc></StartTime><FrequencyChanges><FrequencyChange><Frequency dt:dt=""r8"">10000000</Frequency><Timestamp dt:dt=""r8"">1577325348657</Timestamp><Current dt:dt=""r8"">0</Current><DateUtc dt:dt=""string"">2025-01-15T18:02:55Z</DateUtc></FrequencyChange></FrequencyChanges></Clock>\n",3.0.3.43,3.0.3.60,3.0.3.60,Full,1.0.0.8,Keyboard,Keyboard
discount,,List3,,,,,,,,,,,,,,,,,,800,1 week,3,7,1,1,,,,,,,,,,,,,,,,,,,,,,,,,,,,,,,,,,,,DelayDiscountingTitrated,01-15-2025,13:02:56,1/15/2025 6:02:56 PM,1064,1,8,DelayDiscountingTitrated-1064-1,1075032374,1,75.006,"<?xml version=""1.0""?>\n<Clock xmlns:dt=""urn:schemas-microsoft-com:datatypes""><Description dt:dt=""string"">E-Prime Primary Realtime Clock</Description><StartTime><Timestamp dt:dt=""int"">0</Timestamp><DateUtc dt:dt=""string"">2025-01-15T18:02:55Z</DateUtc></StartTime><FrequencyChanges><FrequencyChange><Frequency dt:dt=""r8"">10000000</Frequency><Timestamp dt:dt=""r8"">1577325348657</Timestamp><Current dt:dt=""r8"">0</Current><DateUtc dt:dt=""string"">2025-01-15T18:02:55Z</DateUtc></FrequencyChange></FrequencyChanges></Clock>\n",3.0.3.43,3.0.3.60,3.0.3.60,Full,1.0.0.8,Keyboard,Keyboard
onewkproc,,List1,,,,,,,,,,,,,,,,,,,,,,,,1,1,1,1,Keyboard,,,,,,,,,,,,,,,,,,,,,,,,,,,,,,,DelayDiscountingTitrated,01-15-2025,13:02:56,1/15/2025 6:02:56 PM,1064,1,8,DelayDiscountingTitrated-1064-1,1075032374,1,75.006,"<?xml version=""1.0""?>\n<Clock xmlns:dt=""urn:schemas-microsoft-com:datatypes""><Description dt:dt=""string"">E-Prime Primary Realtime Clock</Description><StartTime><Timestamp dt:dt=""int"">0</Timestamp><DateUtc dt:dt=""string"">2025-01-15T18:02:55Z</DateUtc></StartTime><FrequencyChanges><FrequencyChange><Frequency dt:dt=""r8"">10000000</Frequency><Timestamp dt:dt=""r8"">1577325348657</Timestamp><Current dt:dt=""r8"">0</Current><DateUtc dt:dt=""string"">2025-01-15T18:02:55Z</DateUtc></FrequencyChange></FrequencyChanges></Clock>\n",3.0.3.43,3.0.3.60,3.0.3.60,Full,1.0.0.8,Keyboard,Keyboard
Init5,,List13,,,Keyboard,3864,1,0,,400,1,800,,,,,,,,,,,,,,,,,,,1,1,1,,,,,,,,,,,,,,,,,,,,,,,,,,,,DelayDiscountingTitrated,01-15-2025,13:02:56,1/15/2025 6:02:56 PM,1064,1,8,DelayDiscountingTitrated-1064-1,1075032374,1,75.006,"<?xml version=""1.0""?>\n<Clock xmlns:dt=""urn:schemas-microsoft-com:datatypes""><Description dt:dt=""string"">E-Prime Primary Realtime Clock</Description><StartTime><Timestamp dt:dt=""int"">0</Timestamp><DateUtc dt:dt=""string"">2025-01-15T18:02:55Z</DateUtc></StartTime><FrequencyChanges><FrequencyChange><Frequency dt:dt=""r8"">10000000</Frequency><Timestamp dt:dt=""r8"">1577325348657</Timestamp><Current dt:dt=""r8"">0</Current><DateUtc dt:dt=""string"">2025-01-15T18:02:55Z</DateUtc></FrequencyChange></FrequencyChanges></Clock>\n",3.0.3.43,3.0.3.60,3.0.3.60,Full,1.0.0.8,Keyboard,Keyboard
Proc5,,List13,,,,,,,,600,3,400,400,Keyboard,3116,3,0,,200,,,,,,,,,,,,2,1,2,,,,,,,,,,,,,,,,,,,,,,,,,,,,DelayDiscountingTitrated,01-15-2025,13:02:56,1/15/2025 6:02:56 PM,1064,1,8,DelayDiscountingTitrated-1064-1,1075032374,1,75.006,"<?xml version=""1.0""?>\n<Clock xmlns:dt=""urn:schemas-microsoft-com:datatypes""><Description dt:dt=""string"">E-Prime Primary Realtime Clock</Description><StartTime><Timestamp dt:dt=""int"">0</Timestamp><DateUtc dt:dt=""string"">2025-01-15T18:02:55Z</DateUtc></StartTime><FrequencyChanges><FrequencyChange><Frequency dt:dt=""r8"">10000000</Frequency><Timestamp dt:dt=""r8"">1577325348657</Timestamp><Current dt:dt=""r8"">0</Current><DateUtc dt:dt=""string"">2025-01-15T18:02:55Z</DateUtc></FrequencyChange></FrequencyChanges></Clock>\n",3.0.3.43,3.0.3.60,3.0.3.60,Full,1.0.0.8,Keyboard,Keyboard
Proc5,,List13,,,,,,,,500,1,600,600,Keyboard,2466,1,0,,100,,,,,,,,,,,,3,1,3,,,,,,,,,,,,,,,,,,,,,,,,,,,,DelayDiscountingTitrated,01-15-2025,13:02:56,1/15/2025 6:02:56 PM,1064,1,8,DelayDiscountingTitrated-1064-1,1075032374,1,75.006,"<?xml version=""1.0""?>\n<Clock xmlns:dt=""urn:schemas-microsoft-com:datatypes""><Description dt:dt=""string"">E-Prime Primary Realtime Clock</Description><StartTime><Timestamp dt:dt=""int"">0</Timestamp><DateUtc dt:dt=""string"">2025-01-15T18:02:55Z</DateUtc></StartTime><FrequencyChanges><FrequencyChange><Frequency dt:dt=""r8"">10000000</Frequency><Timestamp dt:dt=""r8"">1577325348657</Timestamp><Current dt:dt=""r8"">0</Current><DateUtc dt:dt=""string"">2025-01-15T18:02:55Z</DateUtc></FrequencyChange></FrequencyChanges></Clock>\n",3.0.3.43,3.0.3.60,3.0.3.60,Full,1.0.0.8,Keyboard,Keyboard
Proc5,,List13,,,,,,,,450,1,500,500,Keyboard,3241,1,0,,50,,,,,,,,,,,,4,1,4,,,,,,,,,,,,,,,,,,,,,,,,,,,,DelayDiscountingTitrated,01-15-2025,13:02:56,1/15/2025 6:02:56 PM,1064,1,8,DelayDiscountingTitrated-1064-1,1075032374,1,75.006,"<?xml version=""1.0""?>\n<Clock xmlns:dt=""urn:schemas-microsoft-com:datatypes""><Description dt:dt=""string"">E-Prime Primary Realtime Clock</Description><StartTime><Timestamp dt:dt=""int"">0</Timestamp><DateUtc dt:dt=""string"">2025-01-15T18:02:55Z</DateUtc></StartTime><FrequencyChanges><FrequencyChange><Frequency dt:dt=""r8"">10000000</Frequency><Timestamp dt:dt=""r8"">1577325348657</Timestamp><Current dt:dt=""r8"">0</Current><DateUtc dt:dt=""string"">2025-01-15T18:02:55Z</DateUtc></FrequencyChange></FrequencyChanges></Clock>\n",3.0.3.43,3.0.3.60,3.0.3.60,Full,1.0.0.8,Keyboard,Keyboard
Proc5,,List13,,,,,,,,425,1,450,450,Keyboard,1744,1,0,,25,,,,,,,,,,,,5,1,5,,,,,,,,,,,,,,,,,,,,,,,,,,,,DelayDiscountingTitrated,01-15-2025,13:02:56,1/15/2025 6:02:56 PM,1064,1,8,DelayDiscountingTitrated-1064-1,1075032374,1,75.006,"<?xml version=""1.0""?>\n<Clock xmlns:dt=""urn:schemas-microsoft-com:datatypes""><Description dt:dt=""string"">E-Prime Primary Realtime Clock</Description><StartTime><Timestamp dt:dt=""int"">0</Timestamp><DateUtc dt:dt=""string"">2025-01-15T18:02:55Z</DateUtc></StartTime><FrequencyChanges><FrequencyChange><Frequency dt:dt=""r8"">10000000</Frequency><Timestamp dt:dt=""r8"">1577325348657</Timestamp><Current dt:dt=""r8"">0</Current><DateUtc dt:dt=""string"">2025-01-15T18:02:55Z</DateUtc></FrequencyChange></FrequencyChanges></Clock>\n",3.0.3.43,3.0.3.60,3.0.3.60,Full,1.0.0.8,Keyboard,Keyboard
Proc5,,List13,,,,,,,,413,1,425,425,Keyboard,1067,1,0,,12,,,,,,,,,,,,6,1,6,,,,,,,,,,,,,,,,,,,,,,,,,,,,DelayDiscountingTitrated,01-15-2025,13:02:56,1/15/2025 6:02:56 PM,1064,1,8,DelayDiscountingTitrated-1064-1,1075032374,1,75.006,"<?xml version=""1.0""?>\n<Clock xmlns:dt=""urn:schemas-microsoft-com:datatypes""><Description dt:dt=""string"">E-Prime Primary Realtime Clock</Description><StartTime><Timestamp dt:dt=""int"">0</Timestamp><DateUtc dt:dt=""string"">2025-01-15T18:02:55Z</DateUtc></StartTime><FrequencyChanges><FrequencyChange><Frequency dt:dt=""r8"">10000000</Frequency><Timestamp dt:dt=""r8"">1577325348657</Timestamp><Current dt:dt=""r8"">0</Current><DateUtc dt:dt=""string"">2025-01-15T18:02:55Z</DateUtc></FrequencyChange></FrequencyChanges></Clock>\n",3.0.3.43,3.0.3.60,3.0.3.60,Full,1.0.0.8,Keyboard,Keyboard
Proc5,,List13,,,,,,,,407,1,413,413,Keyboard,1275,1,0,,6,,,,,,,,,,,,7,1,7,,,,,,,,,,,,,,,,,,,,,,,,,,,,DelayDiscountingTitrated,01-15-2025,13:02:56,1/15/2025 6:02:56 PM,1064,1,8,DelayDiscountingTitrated-1064-1,1075032374,1,75.006,"<?xml version=""1.0""?>\n<Clock xmlns:dt=""urn:schemas-microsoft-com:datatypes""><Description dt:dt=""string"">E-Prime Primary Realtime Clock</Description><StartTime><Timestamp dt:dt=""int"">0</Timestamp><DateUtc dt:dt=""string"">2025-01-15T18:02:55Z</DateUtc></StartTime><FrequencyChanges><FrequencyChange><Frequency dt:dt=""r8"">10000000</Frequency><Timestamp dt:dt=""r8"">1577325348657</Timestamp><Current dt:dt=""r8"">0</Current><DateUtc dt:dt=""string"">2025-01-15T18:02:55Z</DateUtc></FrequencyChange></FrequencyChanges></Clock>\n",3.0.3.43,3.0.3.60,3.0.3.60,Full,1.0.0.8,Keyboard,Keyboard
Proc5,,List13,,,,,,,,404,1,407,407,Keyboard,1339,1,0,,3,,,,,,,,,,,,8,1,8,,,,,,,,,,,,,,,,,,,,,,,,,,,,DelayDiscountingTitrated,01-15-2025,13:02:56,1/15/2025 6:02:56 PM,1064,1,8,DelayDiscountingTitrated-1064-1,1075032374,1,75.006,"<?xml version=""1.0""?>\n<Clock xmlns:dt=""urn:schemas-microsoft-com:datatypes""><Description dt:dt=""string"">E-Prime Primary Realtime Clock</Description><StartTime><Timestamp dt:dt=""int"">0</Timestamp><DateUtc dt:dt=""string"">2025-01-15T18:02:55Z</DateUtc></StartTime><FrequencyChanges><FrequencyChange><Frequency dt:dt=""r8"">10000000</Frequency><Timestamp dt:dt=""r8"">1577325348657</Timestamp><Current dt:dt=""r8"">0</Current><DateUtc dt:dt=""string"">2025-01-15T18:02:55Z</DateUtc></FrequencyChange></FrequencyChanges></Clock>\n",3.0.3.43,3.0.3.60,3.0.3.60,Full,1.0.0.8,Keyboard,Keyboard
Proc5,,List13,,,,,,,,406,3,404,404,Keyboard,11,3,0,,2,,,,,,,,,,,,9,1,9,,,,,,,,,,,,,,,,,,,,,,,,,,,,DelayDiscountingTitrated,01-15-2025,13:02:56,1/15/2025 6:02:56 PM,1064,1,8,DelayDiscountingTitrated-1064-1,1075032374,1,75.006,"<?xml version=""1.0""?>\n<Clock xmlns:dt=""urn:schemas-microsoft-com:datatypes""><Description dt:dt=""string"">E-Prime Primary Realtime Clock</Description><StartTime><Timestamp dt:dt=""int"">0</Timestamp><DateUtc dt:dt=""string"">2025-01-15T18:02:55Z</DateUtc></StartTime><FrequencyChanges><FrequencyChange><Frequency dt:dt=""r8"">10000000</Frequency><Timestamp dt:dt=""r8"">1577325348657</Timestamp><Current dt:dt=""r8"">0</Current><DateUtc dt:dt=""string"">2025-01-15T18:02:55Z</DateUtc></FrequencyChange></FrequencyChanges></Clock>\n",3.0.3.43,3.0.3.60,3.0.3.60,Full,1.0.0.8,Keyboard,Keyboard
Proc5,,List13,,,,,,,,405,1,406,406,Keyboard,3515,1,0,,1,,,,,,,,,,,,10,1,10,,,,,,,,,,,,,,,,,,,,,,,,,,,,DelayDiscountingTitrated,01-15-2025,13:02:56,1/15/2025 6:02:56 PM,1064,1,8,DelayDiscountingTitrated-1064-1,1075032374,1,75.006,"<?xml version=""1.0""?>\n<Clock xmlns:dt=""urn:schemas-microsoft-com:datatypes""><Description dt:dt=""string"">E-Prime Primary Realtime Clock</Description><StartTime><Timestamp dt:dt=""int"">0</Timestamp><DateUtc dt:dt=""string"">2025-01-15T18:02:55Z</DateUtc></StartTime><FrequencyChanges><FrequencyChange><Frequency dt:dt=""r8"">10000000</Frequency><Timestamp dt:dt=""r8"">1577325348657</Timestamp><Current dt:dt=""r8"">0</Current><DateUtc dt:dt=""string"">2025-01-15T18:02:55Z</DateUtc></FrequencyChange></FrequencyChanges></Clock>\n",3.0.3.43,3.0.3.60,3.0.3.60,Full,1.0.0.8,Keyboard,Keyboard
Proc5,,List13,,,,,,,,405,1,406,405,Keyboard,1454,1,0,,,,,,,,,,,,,,11,1,11,,,,,,,,,,,,,,,,,,,,,,,,,,,,DelayDiscountingTitrated,01-15-2025,13:02:56,1/15/2025 6:02:56 PM,1064,1,8,DelayDiscountingTitrated-1064-1,1075032374,1,75.006,"<?xml version=""1.0""?>\n<Clock xmlns:dt=""urn:schemas-microsoft-com:datatypes""><Description dt:dt=""string"">E-Prime Primary Realtime Clock</Description><StartTime><Timestamp dt:dt=""int"">0</Timestamp><DateUtc dt:dt=""string"">2025-01-15T18:02:55Z</DateUtc></StartTime><FrequencyChanges><FrequencyChange><Frequency dt:dt=""r8"">10000000</Frequency><Timestamp dt:dt=""r8"">1577325348657</Timestamp><Current dt:dt=""r8"">0</Current><DateUtc dt:dt=""string"">2025-01-15T18:02:55Z</DateUtc></FrequencyChange></FrequencyChanges></Clock>\n",3.0.3.43,3.0.3.60,3.0.3.60,Full,1.0.0.8,Keyboard,Keyboard
discount5,,List8,,,,,,,,,,,,,,,,,,800,15 years,,5475,,,,,,,,,,,3,2,1,,,,,,,,,,,,,,,,,,,,,,,,,DelayDiscountingTitrated,01-15-2025,13:02:56,1/15/2025 6:02:56 PM,1064,1,8,DelayDiscountingTitrated-1064-1,1075032374,1,75.006,"<?xml version=""1.0""?>\n<Clock xmlns:dt=""urn:schemas-microsoft-com:datatypes""><Description dt:dt=""string"">E-Prime Primary Realtime Clock</Description><StartTime><Timestamp dt:dt=""int"">0</Timestamp><DateUtc dt:dt=""string"">2025-01-15T18:02:55Z</DateUtc></StartTime><FrequencyChanges><FrequencyChange><Frequency dt:dt=""r8"">10000000</Frequency><Timestamp dt:dt=""r8"">1577325348657</Timestamp><Current dt:dt=""r8"">0</Current><DateUtc dt:dt=""string"">2025-01-15T18:02:55Z</DateUtc></FrequencyChange></FrequencyChanges></Clock>\n",3.0.3.43,3.0.3.60,3.0.3.60,Full,1.0.0.8,Keyboard,Keyboard
fifteenyearproc,,List1,,,,,,,,,,,,,,,,,,,,,,,,6,1,2,2,Keyboard,,,,,,,,,,,,,,,,,,,,,,,,,,,,,,,DelayDiscountingTitrated,01-15-2025,13:02:56,1/15/2025 6:02:56 PM,1064,1,8,DelayDiscountingTitrated-1064-1,1075032374,1,75.006,"<?xml version=""1.0""?>\n<Clock xmlns:dt=""urn:schemas-microsoft-com:datatypes""><Description dt:dt=""string"">E-Prime Primary Realtime Clock</Description><StartTime><Timestamp dt:dt=""int"">0</Timestamp><DateUtc dt:dt=""string"">2025-01-15T18:02:55Z</DateUtc></StartTime><FrequencyChanges><FrequencyChange><Frequency dt:dt=""r8"">10000000</Frequency><Timestamp dt:dt=""r8"">1577325348657</Timestamp><Current dt:dt=""r8"">0</Current><DateUtc dt:dt=""string"">2025-01-15T18:02:55Z</DateUtc></FrequencyChange></FrequencyChanges></Clock>\n",3.0.3.43,3.0.3.60,3.0.3.60,Full,1.0.0.8,Keyboard,Keyboard
Init1,,List9,,,Keyboard,1696,3,0,,900,3,800,,,,,,,,,,,,,,,,,,,,,,,,,1,1,1,,,,,,,,,,,,,,,,,,,,,,DelayDiscountingTitrated,01-15-2025,13:02:56,1/15/2025 6:02:56 PM,1064,1,8,DelayDiscountingTitrated-1064-1,1075032374,1,75.006,"<?xml version=""1.0""?>\n<Clock xmlns:dt=""urn:schemas-microsoft-com:datatypes""><Description dt:dt=""string"">E-Prime Primary Realtime Clock</Description><StartTime><Timestamp dt:dt=""int"">0</Timestamp><DateUtc dt:dt=""string"">2025-01-15T18:02:55Z</DateUtc></StartTime><FrequencyChanges><FrequencyChange><Frequency dt:dt=""r8"">10000000</Frequency><Timestamp dt:dt=""r8"">1577325348657</Timestamp><Current dt:dt=""r8"">0</Current><DateUtc dt:dt=""string"">2025-01-15T18:02:55Z</DateUtc></FrequencyChange></FrequencyChanges></Clock>\n",3.0.3.43,3.0.3.60,3.0.3.60,Full,1.0.0.8,Keyboard,Keyboard
Proc1,,List9,,,,,,,,850,1,900,900,Keyboard,1255,1,0,,50,,,,,,,,,,,,,,,,,,2,1,2,,,,,,,,,,,,,,,,,,,,,,DelayDiscountingTitrated,01-15-2025,13:02:56,1/15/2025 6:02:56 PM,1064,1,8,DelayDiscountingTitrated-1064-1,1075032374,1,75.006,"<?xml version=""1.0""?>\n<Clock xmlns:dt=""urn:schemas-microsoft-com:datatypes""><Description dt:dt=""string"">E-Prime Primary Realtime Clock</Description><StartTime><Timestamp dt:dt=""int"">0</Timestamp><DateUtc dt:dt=""string"">2025-01-15T18:02:55Z</DateUtc></StartTime><FrequencyChanges><FrequencyChange><Frequency dt:dt=""r8"">10000000</Frequency><Timestamp dt:dt=""r8"">1577325348657</Timestamp><Current dt:dt=""r8"">0</Current><DateUtc dt:dt=""string"">2025-01-15T18:02:55Z</DateUtc></FrequencyChange></FrequencyChanges></Clock>\n",3.0.3.43,3.0.3.60,3.0.3.60,Full,1.0.0.8,Keyboard,Keyboard
Proc1,,List9,,,,,,,,825,1,850,850,Keyboard,1441,1,0,,25,,,,,,,,,,,,,,,,,,3,1,3,,,,,,,,,,,,,,,,,,,,,,DelayDiscountingTitrated,01-15-2025,13:02:56,1/15/2025 6:02:56 PM,1064,1,8,DelayDiscountingTitrated-1064-1,1075032374,1,75.006,"<?xml version=""1.0""?>\n<Clock xmlns:dt=""urn:schemas-microsoft-com:datatypes""><Description dt:dt=""string"">E-Prime Primary Realtime Clock</Description><StartTime><Timestamp dt:dt=""int"">0</Timestamp><DateUtc dt:dt=""string"">2025-01-15T18:02:55Z</DateUtc></StartTime><FrequencyChanges><FrequencyChange><Frequency dt:dt=""r8"">10000000</Frequency><Timestamp dt:dt=""r8"">1577325348657</Timestamp><Current dt:dt=""r8"">0</Current><DateUtc dt:dt=""string"">2025-01-15T18:02:55Z</DateUtc></FrequencyChange></FrequencyChanges></Clock>\n",3.0.3.43,3.0.3.60,3.0.3.60,Full,1.0.0.8,Keyboard,Keyboard
Proc1,,List9,,,,,,,,813,1,825,825,Keyboard,1483,1,0,,12,,,,,,,,,,,,,,,,,,4,1,4,,,,,,,,,,,,,,,,,,,,,,DelayDiscountingTitrated,01-15-2025,13:02:56,1/15/2025 6:02:56 PM,1064,1,8,DelayDiscountingTitrated-1064-1,1075032374,1,75.006,"<?xml version=""1.0""?>\n<Clock xmlns:dt=""urn:schemas-microsoft-com:datatypes""><Description dt:dt=""string"">E-Prime Primary Realtime Clock</Description><StartTime><Timestamp dt:dt=""int"">0</Timestamp><DateUtc dt:dt=""string"">2025-01-15T18:02:55Z</DateUtc></StartTime><FrequencyChanges><FrequencyChange><Frequency dt:dt=""r8"">10000000</Frequency><Timestamp dt:dt=""r8"">1577325348657</Timestamp><Current dt:dt=""r8"">0</Current><DateUtc dt:dt=""string"">2025-01-15T18:02:55Z</DateUtc></FrequencyChange></FrequencyChanges></Clock>\n",3.0.3.43,3.0.3.60,3.0.3.60,Full,1.0.0.8,Keyboard,Keyboard
Proc1,,List9,,,,,,,,807,1,813,813,Keyboard,599,1,0,,6,,,,,,,,,,,,,,,,,,5,1,5,,,,,,,,,,,,,,,,,,,,,,DelayDiscountingTitrated,01-15-2025,13:02:56,1/15/2025 6:02:56 PM,1064,1,8,DelayDiscountingTitrated-1064-1,1075032374,1,75.006,"<?xml version=""1.0""?>\n<Clock xmlns:dt=""urn:schemas-microsoft-com:datatypes""><Description dt:dt=""string"">E-Prime Primary Realtime Clock</Description><StartTime><Timestamp dt:dt=""int"">0</Timestamp><DateUtc dt:dt=""string"">2025-01-15T18:02:55Z</DateUtc></StartTime><FrequencyChanges><FrequencyChange><Frequency dt:dt=""r8"">10000000</Frequency><Timestamp dt:dt=""r8"">1577325348657</Timestamp><Current dt:dt=""r8"">0</Current><DateUtc dt:dt=""string"">2025-01-15T18:02:55Z</DateUtc></FrequencyChange></FrequencyChanges></Clock>\n",3.0.3.43,3.0.3.60,3.0.3.60,Full,1.0.0.8,Keyboard,Keyboard
Proc1,,List9,,,,,,,,804,1,807,807,Keyboard,1892,1,0,,3,,,,,,,,,,,,,,,,,,6,1,6,,,,,,,,,,,,,,,,,,,,,,DelayDiscountingTitrated,01-15-2025,13:02:56,1/15/2025 6:02:56 PM,1064,1,8,DelayDiscountingTitrated-1064-1,1075032374,1,75.006,"<?xml version=""1.0""?>\n<Clock xmlns:dt=""urn:schemas-microsoft-com:datatypes""><Description dt:dt=""string"">E-Prime Primary Realtime Clock</Description><StartTime><Timestamp dt:dt=""int"">0</Timestamp><DateUtc dt:dt=""string"">2025-01-15T18:02:55Z</DateUtc></StartTime><FrequencyChanges><FrequencyChange><Frequency dt:dt=""r8"">10000000</Frequency><Timestamp dt:dt=""r8"">1577325348657</Timestamp><Current dt:dt=""r8"">0</Current><DateUtc dt:dt=""string"">2025-01-15T18:02:55Z</DateUtc></FrequencyChange></FrequencyChanges></Clock>\n",3.0.3.43,3.0.3.60,3.0.3.60,Full,1.0.0.8,Keyboard,Keyboard
Proc1,,List9,,,,,,,,802,1,804,804,Keyboard,402,1,0,,2,,,,,,,,,,,,,,,,,,7,1,7,,,,,,,,,,,,,,,,,,,,,,DelayDiscountingTitrated,01-15-2025,13:02:56,1/15/2025 6:02:56 PM,1064,1,8,DelayDiscountingTitrated-1064-1,1075032374,1,75.006,"<?xml version=""1.0""?>\n<Clock xmlns:dt=""urn:schemas-microsoft-com:datatypes""><Description dt:dt=""string"">E-Prime Primary Realtime Clock</Description><StartTime><Timestamp dt:dt=""int"">0</Timestamp><DateUtc dt:dt=""string"">2025-01-15T18:02:55Z</DateUtc></StartTime><FrequencyChanges><FrequencyChange><Frequency dt:dt=""r8"">10000000</Frequency><Timestamp dt:dt=""r8"">1577325348657</Timestamp><Current dt:dt=""r8"">0</Current><DateUtc dt:dt=""string"">2025-01-15T18:02:55Z</DateUtc></FrequencyChange></FrequencyChanges></Clock>\n",3.0.3.43,3.0.3.60,3.0.3.60,Full,1.0.0.8,Keyboard,Keyboard
Proc1,,List9,,,,,,,,801,1,802,802,Keyboard,2165,1,0,,1,,,,,,,,,,,,,,,,,,8,1,8,,,,,,,,,,,,,,,,,,,,,,DelayDiscountingTitrated,01-15-2025,13:02:56,1/15/2025 6:02:56 PM,1064,1,8,DelayDiscountingTitrated-1064-1,1075032374,1,75.006,"<?xml version=""1.0""?>\n<Clock xmlns:dt=""urn:schemas-microsoft-com:datatypes""><Description dt:dt=""string"">E-Prime Primary Realtime Clock</Description><StartTime><Timestamp dt:dt=""int"">0</Timestamp><DateUtc dt:dt=""string"">2025-01-15T18:02:55Z</DateUtc></StartTime><FrequencyChanges><FrequencyChange><Frequency dt:dt=""r8"">10000000</Frequency><Timestamp dt:dt=""r8"">1577325348657</Timestamp><Current dt:dt=""r8"">0</Current><DateUtc dt:dt=""string"">2025-01-15T18:02:55Z</DateUtc></FrequencyChange></FrequencyChanges></Clock>\n",3.0.3.43,3.0.3.60,3.0.3.60,Full,1.0.0.8,Keyboard,Keyboard
Proc1,,List9,,,,,,,,801,3,802,801,Keyboard,2115,3,0,,,,,,,,,,,,,,,,,,,,9,1,9,,,,,,,,,,,,,,,,,,,,,,DelayDiscountingTitrated,01-15-2025,13:02:56,1/15/2025 6:02:56 PM,1064,1,8,DelayDiscountingTitrated-1064-1,1075032374,1,75.006,"<?xml version=""1.0""?>\n<Clock xmlns:dt=""urn:schemas-microsoft-com:datatypes""><Description dt:dt=""string"">E-Prime Primary Realtime Clock</Description><StartTime><Timestamp dt:dt=""int"">0</Timestamp><DateUtc dt:dt=""string"">2025-01-15T18:02:55Z</DateUtc></StartTime><FrequencyChanges><FrequencyChange><Frequency dt:dt=""r8"">10000000</Frequency><Timestamp dt:dt=""r8"">1577325348657</Timestamp><Current dt:dt=""r8"">0</Current><DateUtc dt:dt=""string"">2025-01-15T18:02:55Z</DateUtc></FrequencyChange></FrequencyChanges></Clock>\n",3.0.3.43,3.0.3.60,3.0.3.60,Full,1.0.0.8,Keyboard,Keyboard
discount1,,List4,,,,,,,,,,,,,,,,,,800,1 month,,30,,,,,,,,,,,,,,,,,3,1,1,,,,,,,,,,,,,,,,,,,DelayDiscountingTitrated,01-15-2025,13:02:56,1/15/2025 6:02:56 PM,1064,1,8,DelayDiscountingTitrated-1064-1,1075032374,1,75.006,"<?xml version=""1.0""?>\n<Clock xmlns:dt=""urn:schemas-microsoft-com:datatypes""><Description dt:dt=""string"">E-Prime Primary Realtime Clock</Description><StartTime><Timestamp dt:dt=""int"">0</Timestamp><DateUtc dt:dt=""string"">2025-01-15T18:02:55Z</DateUtc></StartTime><FrequencyChanges><FrequencyChange><Frequency dt:dt=""r8"">10000000</Frequency><Timestamp dt:dt=""r8"">1577325348657</Timestamp><Current dt:dt=""r8"">0</Current><DateUtc dt:dt=""string"">2025-01-15T18:02:55Z</DateUtc></FrequencyChange></FrequencyChanges></Clock>\n",3.0.3.43,3.0.3.60,3.0.3.60,Full,1.0.0.8,Keyboard,Keyboard
onemthproc,,List1,,,,,,,,,,,,,,,,,,,,,,,,2,1,3,3,Keyboard,,,,,,,,,,,,,,,,,,,,,,,,,,,,,,,DelayDiscountingTitrated,01-15-2025,13:02:56,1/15/2025 6:02:56 PM,1064,1,8,DelayDiscountingTitrated-1064-1,1075032374,1,75.006,"<?xml version=""1.0""?>\n<Clock xmlns:dt=""urn:schemas-microsoft-com:datatypes""><Description dt:dt=""string"">E-Prime Primary Realtime Clock</Description><StartTime><Timestamp dt:dt=""int"">0</Timestamp><DateUtc dt:dt=""string"">2025-01-15T18:02:55Z</DateUtc></StartTime><FrequencyChanges><FrequencyChange><Frequency dt:dt=""r8"">10000000</Frequency><Timestamp dt:dt=""r8"">1577325348657</Timestamp><Current dt:dt=""r8"">0</Current><DateUtc dt:dt=""string"">2025-01-15T18:02:55Z</DateUtc></FrequencyChange></FrequencyChanges></Clock>\n",3.0.3.43,3.0.3.60,3.0.3.60,Full,1.0.0.8,Keyboard,Keyboard
Init3,,List11,,,Keyboard,3617,1,0,,100,1,200,,,,,,,,,,,,,,,,,,,,,,,,,,,,,,,1,1,1,,,,,,,,,,,,,,,,DelayDiscountingTitrated,01-15-2025,13:02:56,1/15/2025 6:02:56 PM,1064,1,8,DelayDiscountingTitrated-1064-1,1075032374,1,75.006,"<?xml version=""1.0""?>\n<Clock xmlns:dt=""urn:schemas-microsoft-com:datatypes""><Description dt:dt=""string"">E-Prime Primary Realtime Clock</Description><StartTime><Timestamp dt:dt=""int"">0</Timestamp><DateUtc dt:dt=""string"">2025-01-15T18:02:55Z</DateUtc></StartTime><FrequencyChanges><FrequencyChange><Frequency dt:dt=""r8"">10000000</Frequency><Timestamp dt:dt=""r8"">1577325348657</Timestamp><Current dt:dt=""r8"">0</Current><DateUtc dt:dt=""string"">2025-01-15T18:02:55Z</DateUtc></FrequencyChange></FrequencyChanges></Clock>\n",3.0.3.43,3.0.3.60,3.0.3.60,Full,1.0.0.8,Keyboard,Keyboard
Proc3,,List11,,,,,,,,50,1,100,100,Keyboard,1463,1,0,,50,,,,,,,,,,,,,,,,,,,,,,,,2,1,2,,,,,,,,,,,,,,,,DelayDiscountingTitrated,01-15-2025,13:02:56,1/15/2025 6:02:56 PM,1064,1,8,DelayDiscountingTitrated-1064-1,1075032374,1,75.006,"<?xml version=""1.0""?>\n<Clock xmlns:dt=""urn:schemas-microsoft-com:datatypes""><Description dt:dt=""string"">E-Prime Primary Realtime Clock</Description><StartTime><Timestamp dt:dt=""int"">0</Timestamp><DateUtc dt:dt=""string"">2025-01-15T18:02:55Z</DateUtc></StartTime><FrequencyChanges><FrequencyChange><Frequency dt:dt=""r8"">10000000</Frequency><Timestamp dt:dt=""r8"">1577325348657</Timestamp><Current dt:dt=""r8"">0</Current><DateUtc dt:dt=""string"">2025-01-15T18:02:55Z</DateUtc></FrequencyChange></FrequencyChanges></Clock>\n",3.0.3.43,3.0.3.60,3.0.3.60,Full,1.0.0.8,Keyboard,Keyboard
Proc3,,List11,,,,,,,,25,1,50,50,Keyboard,2421,1,0,,25,,,,,,,,,,,,,,,,,,,,,,,,3,1,3,,,,,,,,,,,,,,,,DelayDiscountingTitrated,01-15-2025,13:02:56,1/15/2025 6:02:56 PM,1064,1,8,DelayDiscountingTitrated-1064-1,1075032374,1,75.006,"<?xml version=""1.0""?>\n<Clock xmlns:dt=""urn:schemas-microsoft-com:datatypes""><Description dt:dt=""string"">E-Prime Primary Realtime Clock</Description><StartTime><Timestamp dt:dt=""int"">0</Timestamp><DateUtc dt:dt=""string"">2025-01-15T18:02:55Z</DateUtc></StartTime><FrequencyChanges><FrequencyChange><Frequency dt:dt=""r8"">10000000</Frequency><Timestamp dt:dt=""r8"">1577325348657</Timestamp><Current dt:dt=""r8"">0</Current><DateUtc dt:dt=""string"">2025-01-15T18:02:55Z</DateUtc></FrequencyChange></FrequencyChanges></Clock>\n",3.0.3.43,3.0.3.60,3.0.3.60,Full,1.0.0.8,Keyboard,Keyboard
Proc3,,List11,,,,,,,,13,1,25,25,Keyboard,763,1,0,,12,,,,,,,,,,,,,,,,,,,,,,,,4,1,4,,,,,,,,,,,,,,,,DelayDiscountingTitrated,01-15-2025,13:02:56,1/15/2025 6:02:56 PM,1064,1,8,DelayDiscountingTitrated-1064-1,1075032374,1,75.006,"<?xml version=""1.0""?>\n<Clock xmlns:dt=""urn:schemas-microsoft-com:datatypes""><Description dt:dt=""string"">E-Prime Primary Realtime Clock</Description><StartTime><Timestamp dt:dt=""int"">0</Timestamp><DateUtc dt:dt=""string"">2025-01-15T18:02:55Z</DateUtc></StartTime><FrequencyChanges><FrequencyChange><Frequency dt:dt=""r8"">10000000</Frequency><Timestamp dt:dt=""r8"">1577325348657</Timestamp><Current dt:dt=""r8"">0</Current><DateUtc dt:dt=""string"">2025-01-15T18:02:55Z</DateUtc></FrequencyChange></FrequencyChanges></Clock>\n",3.0.3.43,3.0.3.60,3.0.3.60,Full,1.0.0.8,Keyboard,Keyboard
Proc3,,List11,,,,,,,,19,3,13,13,Keyboard,1899,3,0,,6,,,,,,,,,,,,,,,,,,,,,,,,5,1,5,,,,,,,,,,,,,,,,DelayDiscountingTitrated,01-15-2025,13:02:56,1/15/2025 6:02:56 PM,1064,1,8,DelayDiscountingTitrated-1064-1,1075032374,1,75.006,"<?xml version=""1.0""?>\n<Clock xmlns:dt=""urn:schemas-microsoft-com:datatypes""><Description dt:dt=""string"">E-Prime Primary Realtime Clock</Description><StartTime><Timestamp dt:dt=""int"">0</Timestamp><DateUtc dt:dt=""string"">2025-01-15T18:02:55Z</DateUtc></StartTime><FrequencyChanges><FrequencyChange><Frequency dt:dt=""r8"">10000000</Frequency><Timestamp dt:dt=""r8"">1577325348657</Timestamp><Current dt:dt=""r8"">0</Current><DateUtc dt:dt=""string"">2025-01-15T18:02:55Z</DateUtc></FrequencyChange></FrequencyChanges></Clock>\n",3.0.3.43,3.0.3.60,3.0.3.60,Full,1.0.0.8,Keyboard,Keyboard
Proc3,,List11,,,,,,,,16,1,19,19,Keyboard,1069,1,0,,3,,,,,,,,,,,,,,,,,,,,,,,,6,1,6,,,,,,,,,,,,,,,,DelayDiscountingTitrated,01-15-2025,13:02:56,1/15/2025 6:02:56 PM,1064,1,8,DelayDiscountingTitrated-1064-1,1075032374,1,75.006,"<?xml version=""1.0""?>\n<Clock xmlns:dt=""urn:schemas-microsoft-com:datatypes""><Description dt:dt=""string"">E-Prime Primary Realtime Clock</Description><StartTime><Timestamp dt:dt=""int"">0</Timestamp><DateUtc dt:dt=""string"">2025-01-15T18:02:55Z</DateUtc></StartTime><FrequencyChanges><FrequencyChange><Frequency dt:dt=""r8"">10000000</Frequency><Timestamp dt:dt=""r8"">1577325348657</Timestamp><Current dt:dt=""r8"">0</Current><DateUtc dt:dt=""string"">2025-01-15T18:02:55Z</DateUtc></FrequencyChange></FrequencyChanges></Clock>\n",3.0.3.43,3.0.3.60,3.0.3.60,Full,1.0.0.8,Keyboard,Keyboard
Proc3,,List11,,,,,,,,14,1,16,16,Keyboard,876,1,0,,2,,,,,,,,,,,,,,,,,,,,,,,,7,1,7,,,,,,,,,,,,,,,,DelayDiscountingTitrated,01-15-2025,13:02:56,1/15/2025 6:02:56 PM,1064,1,8,DelayDiscountingTitrated-1064-1,1075032374,1,75.006,"<?xml version=""1.0""?>\n<Clock xmlns:dt=""urn:schemas-microsoft-com:datatypes""><Description dt:dt=""string"">E-Prime Primary Realtime Clock</Description><StartTime><Timestamp dt:dt=""int"">0</Timestamp><DateUtc dt:dt=""string"">2025-01-15T18:02:55Z</DateUtc></StartTime><FrequencyChanges><FrequencyChange><Frequency dt:dt=""r8"">10000000</Frequency><Timestamp dt:dt=""r8"">1577325348657</Timestamp><Current dt:dt=""r8"">0</Current><DateUtc dt:dt=""string"">2025-01-15T18:02:55Z</DateUtc></FrequencyChange></FrequencyChanges></Clock>\n",3.0.3.43,3.0.3.60,3.0.3.60,Full,1.0.0.8,Keyboard,Keyboard
Proc3,,List11,,,,,,,,13,1,14,14,Keyboard,667,1,0,,1,,,,,,,,,,,,,,,,,,,,,,,,8,1,8,,,,,,,,,,,,,,,,DelayDiscountingTitrated,01-15-2025,13:02:56,1/15/2025 6:02:56 PM,1064,1,8,DelayDiscountingTitrated-1064-1,1075032374,1,75.006,"<?xml version=""1.0""?>\n<Clock xmlns:dt=""urn:schemas-microsoft-com:datatypes""><Description dt:dt=""string"">E-Prime Primary Realtime Clock</Description><StartTime><Timestamp dt:dt=""int"">0</Timestamp><DateUtc dt:dt=""string"">2025-01-15T18:02:55Z</DateUtc></StartTime><FrequencyChanges><FrequencyChange><Frequency dt:dt=""r8"">10000000</Frequency><Timestamp dt:dt=""r8"">1577325348657</Timestamp><Current dt:dt=""r8"">0</Current><DateUtc dt:dt=""string"">2025-01-15T18:02:55Z</DateUtc></FrequencyChange></FrequencyChanges></Clock>\n",3.0.3.43,3.0.3.60,3.0.3.60,Full,1.0.0.8,Keyboard,Keyboard
Proc3,,List11,,,,,,,,13,1,14,13,Keyboard,1132,1,0,,,,,,,,,,,,,,,,,,,,,,,,,,9,1,9,,,,,,,,,,,,,,,,DelayDiscountingTitrated,01-15-2025,13:02:56,1/15/2025 6:02:56 PM,1064,1,8,DelayDiscountingTitrated-1064-1,1075032374,1,75.006,"<?xml version=""1.0""?>\n<Clock xmlns:dt=""urn:schemas-microsoft-com:datatypes""><Description dt:dt=""string"">E-Prime Primary Realtime Clock</Description><StartTime><Timestamp dt:dt=""int"">0</Timestamp><DateUtc dt:dt=""string"">2025-01-15T18:02:55Z</DateUtc></StartTime><FrequencyChanges><FrequencyChange><Frequency dt:dt=""r8"">10000000</Frequency><Timestamp dt:dt=""r8"">1577325348657</Timestamp><Current dt:dt=""r8"">0</Current><DateUtc dt:dt=""string"">2025-01-15T18:02:55Z</DateUtc></FrequencyChange></FrequencyChanges></Clock>\n",3.0.3.43,3.0.3.60,3.0.3.60,Full,1.0.0.8,Keyboard,Keyboard
discount3,,List6,,,,,,,,,,,,,,,,,,200,1 year,,365,,,,,,,,,,,,,,,,,,,,,,,1,1,1,,,,,,,,,,,,,DelayDiscountingTitrated,01-15-2025,13:02:56,1/15/2025 6:02:56 PM,1064,1,8,DelayDiscountingTitrated-1064-1,1075032374,1,75.006,"<?xml version=""1.0""?>\n<Clock xmlns:dt=""urn:schemas-microsoft-com:datatypes""><Description dt:dt=""string"">E-Prime Primary Realtime Clock</Description><StartTime><Timestamp dt:dt=""int"">0</Timestamp><DateUtc dt:dt=""string"">2025-01-15T18:02:55Z</DateUtc></StartTime><FrequencyChanges><FrequencyChange><Frequency dt:dt=""r8"">10000000</Frequency><Timestamp dt:dt=""r8"">1577325348657</Timestamp><Current dt:dt=""r8"">0</Current><DateUtc dt:dt=""string"">2025-01-15T18:02:55Z</DateUtc></FrequencyChange></FrequencyChanges></Clock>\n",3.0.3.43,3.0.3.60,3.0.3.60,Full,1.0.0.8,Keyboard,Keyboard
oneyearproc,,List1,,,,,,,,,,,,,,,,,,,,,,,,4,1,4,4,Keyboard,,,,,,,,,,,,,,,,,,,,,,,,,,,,,,,DelayDiscountingTitrated,01-15-2025,13:02:56,1/15/2025 6:02:56 PM,1064,1,8,DelayDiscountingTitrated-1064-1,1075032374,1,75.006,"<?xml version=""1.0""?>\n<Clock xmlns:dt=""urn:schemas-microsoft-com:datatypes""><Description dt:dt=""string"">E-Prime Primary Realtime Clock</Description><StartTime><Timestamp dt:dt=""int"">0</Timestamp><DateUtc dt:dt=""string"">2025-01-15T18:02:55Z</DateUtc></StartTime><FrequencyChanges><FrequencyChange><Frequency dt:dt=""r8"">10000000</Frequency><Timestamp dt:dt=""r8"">1577325348657</Timestamp><Current dt:dt=""r8"">0</Current><DateUtc dt:dt=""string"">2025-01-15T18:02:55Z</DateUtc></FrequencyChange></FrequencyChanges></Clock>\n",3.0.3.43,3.0.3.60,3.0.3.60,Full,1.0.0.8,Keyboard,Keyboard
Init4,,List12,,,Keyboard,2550,1,0,,400,1,800,,,,,,,,,,,,,,,,,,,,,,,,,,,,,,,,,,,,,1,1,1,,,,,,,,,,DelayDiscountingTitrated,01-15-2025,13:02:56,1/15/2025 6:02:56 PM,1064,1,8,DelayDiscountingTitrated-1064-1,1075032374,1,75.006,"<?xml version=""1.0""?>\n<Clock xmlns:dt=""urn:schemas-microsoft-com:datatypes""><Description dt:dt=""string"">E-Prime Primary Realtime Clock</Description><StartTime><Timestamp dt:dt=""int"">0</Timestamp><DateUtc dt:dt=""string"">2025-01-15T18:02:55Z</DateUtc></StartTime><FrequencyChanges><FrequencyChange><Frequency dt:dt=""r8"">10000000</Frequency><Timestamp dt:dt=""r8"">1577325348657</Timestamp><Current dt:dt=""r8"">0</Current><DateUtc dt:dt=""string"">2025-01-15T18:02:55Z</DateUtc></FrequencyChange></FrequencyChanges></Clock>\n",3.0.3.43,3.0.3.60,3.0.3.60,Full,1.0.0.8,Keyboard,Keyboard
Proc4,,List12,,,,,,,,600,3,400,400,Keyboard,15429,3,0,,200,,,,,,,,,,,,,,,,,,,,,,,,,,,,,,2,1,2,,,,,,,,,,DelayDiscountingTitrated,01-15-2025,13:02:56,1/15/2025 6:02:56 PM,1064,1,8,DelayDiscountingTitrated-1064-1,1075032374,1,75.006,"<?xml version=""1.0""?>\n<Clock xmlns:dt=""urn:schemas-microsoft-com:datatypes""><Description dt:dt=""string"">E-Prime Primary Realtime Clock</Description><StartTime><Timestamp dt:dt=""int"">0</Timestamp><DateUtc dt:dt=""string"">2025-01-15T18:02:55Z</DateUtc></StartTime><FrequencyChanges><FrequencyChange><Frequency dt:dt=""r8"">10000000</Frequency><Timestamp dt:dt=""r8"">1577325348657</Timestamp><Current dt:dt=""r8"">0</Current><DateUtc dt:dt=""string"">2025-01-15T18:02:55Z</DateUtc></FrequencyChange></FrequencyChanges></Clock>\n",3.0.3.43,3.0.3.60,3.0.3.60,Full,1.0.0.8,Keyboard,Keyboard
Proc4,,List12,,,,,,,,500,1,600,600,Keyboard,1488,1,0,,100,,,,,,,,,,,,,,,,,,,,,,,,,,,,,,3,1,3,,,,,,,,,,DelayDiscountingTitrated,01-15-2025,13:02:56,1/15/2025 6:02:56 PM,1064,1,8,DelayDiscountingTitrated-1064-1,1075032374,1,75.006,"<?xml version=""1.0""?>\n<Clock xmlns:dt=""urn:schemas-microsoft-com:datatypes""><Description dt:dt=""string"">E-Prime Primary Realtime Clock</Description><StartTime><Timestamp dt:dt=""int"">0</Timestamp><DateUtc dt:dt=""string"">2025-01-15T18:02:55Z</DateUtc></StartTime><FrequencyChanges><FrequencyChange><Frequency dt:dt=""r8"">10000000</Frequency><Timestamp dt:dt=""r8"">1577325348657</Timestamp><Current dt:dt=""r8"">0</Current><DateUtc dt:dt=""string"">2025-01-15T18:02:55Z</DateUtc></FrequencyChange></FrequencyChanges></Clock>\n",3.0.3.43,3.0.3.60,3.0.3.60,Full,1.0.0.8,Keyboard,Keyboard
Proc4,,List12,,,,,,,,450,1,500,500,Keyboard,1479,1,0,,50,,,,,,,,,,,,,,,,,,,,,,,,,,,,,,4,1,4,,,,,,,,,,DelayDiscountingTitrated,01-15-2025,13:02:56,1/15/2025 6:02:56 PM,1064,1,8,DelayDiscountingTitrated-1064-1,1075032374,1,75.006,"<?xml version=""1.0""?>\n<Clock xmlns:dt=""urn:schemas-microsoft-com:datatypes""><Description dt:dt=""string"">E-Prime Primary Realtime Clock</Description><StartTime><Timestamp dt:dt=""int"">0</Timestamp><DateUtc dt:dt=""string"">2025-01-15T18:02:55Z</DateUtc></StartTime><FrequencyChanges><FrequencyChange><Frequency dt:dt=""r8"">10000000</Frequency><Timestamp dt:dt=""r8"">1577325348657</Timestamp><Current dt:dt=""r8"">0</Current><DateUtc dt:dt=""string"">2025-01-15T18:02:55Z</DateUtc></FrequencyChange></FrequencyChanges></Clock>\n",3.0.3.43,3.0.3.60,3.0.3.60,Full,1.0.0.8,Keyboard,Keyboard
Proc4,,List12,,,,,,,,425,1,450,450,Keyboard,856,1,0,,25,,,,,,,,,,,,,,,,,,,,,,,,,,,,,,5,1,5,,,,,,,,,,DelayDiscountingTitrated,01-15-2025,13:02:56,1/15/2025 6:02:56 PM,1064,1,8,DelayDiscountingTitrated-1064-1,1075032374,1,75.006,"<?xml version=""1.0""?>\n<Clock xmlns:dt=""urn:schemas-microsoft-com:datatypes""><Description dt:dt=""string"">E-Prime Primary Realtime Clock</Description><StartTime><Timestamp dt:dt=""int"">0</Timestamp><DateUtc dt:dt=""string"">2025-01-15T18:02:55Z</DateUtc></StartTime><FrequencyChanges><FrequencyChange><Frequency dt:dt=""r8"">10000000</Frequency><Timestamp dt:dt=""r8"">1577325348657</Timestamp><Current dt:dt=""r8"">0</Current><DateUtc dt:dt=""string"">2025-01-15T18:02:55Z</DateUtc></FrequencyChange></FrequencyChanges></Clock>\n",3.0.3.43,3.0.3.60,3.0.3.60,Full,1.0.0.8,Keyboard,Keyboard
Proc4,,List12,,,,,,,,413,1,425,425,Keyboard,1499,1,0,,12,,,,,,,,,,,,,,,,,,,,,,,,,,,,,,6,1,6,,,,,,,,,,DelayDiscountingTitrated,01-15-2025,13:02:56,1/15/2025 6:02:56 PM,1064,1,8,DelayDiscountingTitrated-1064-1,1075032374,1,75.006,"<?xml version=""1.0""?>\n<Clock xmlns:dt=""urn:schemas-microsoft-com:datatypes""><Description dt:dt=""string"">E-Prime Primary Realtime Clock</Description><StartTime><Timestamp dt:dt=""int"">0</Timestamp><DateUtc dt:dt=""string"">2025-01-15T18:02:55Z</DateUtc></StartTime><FrequencyChanges><FrequencyChange><Frequency dt:dt=""r8"">10000000</Frequency><Timestamp dt:dt=""r8"">1577325348657</Timestamp><Current dt:dt=""r8"">0</Current><DateUtc dt:dt=""string"">2025-01-15T18:02:55Z</DateUtc></FrequencyChange></FrequencyChanges></Clock>\n",3.0.3.43,3.0.3.60,3.0.3.60,Full,1.0.0.8,Keyboard,Keyboard
Proc4,,List12,,,,,,,,407,1,413,413,Keyboard,2294,1,0,,6,,,,,,,,,,,,,,,,,,,,,,,,,,,,,,7,1,7,,,,,,,,,,DelayDiscountingTitrated,01-15-2025,13:02:56,1/15/2025 6:02:56 PM,1064,1,8,DelayDiscountingTitrated-1064-1,1075032374,1,75.006,"<?xml version=""1.0""?>\n<Clock xmlns:dt=""urn:schemas-microsoft-com:datatypes""><Description dt:dt=""string"">E-Prime Primary Realtime Clock</Description><StartTime><Timestamp dt:dt=""int"">0</Timestamp><DateUtc dt:dt=""string"">2025-01-15T18:02:55Z</DateUtc></StartTime><FrequencyChanges><FrequencyChange><Frequency dt:dt=""r8"">10000000</Frequency><Timestamp dt:dt=""r8"">1577325348657</Timestamp><Current dt:dt=""r8"">0</Current><DateUtc dt:dt=""string"">2025-01-15T18:02:55Z</DateUtc></FrequencyChange></FrequencyChanges></Clock>\n",3.0.3.43,3.0.3.60,3.0.3.60,Full,1.0.0.8,Keyboard,Keyboard
Proc4,,List12,,,,,,,,404,1,407,407,Keyboard,2482,1,0,,3,,,,,,,,,,,,,,,,,,,,,,,,,,,,,,8,1,8,,,,,,,,,,DelayDiscountingTitrated,01-15-2025,13:02:56,1/15/2025 6:02:56 PM,1064,1,8,DelayDiscountingTitrated-1064-1,1075032374,1,75.006,"<?xml version=""1.0""?>\n<Clock xmlns:dt=""urn:schemas-microsoft-com:datatypes""><Description dt:dt=""string"">E-Prime Primary Realtime Clock</Description><StartTime><Timestamp dt:dt=""int"">0</Timestamp><DateUtc dt:dt=""string"">2025-01-15T18:02:55Z</DateUtc></StartTime><FrequencyChanges><FrequencyChange><Frequency dt:dt=""r8"">10000000</Frequency><Timestamp dt:dt=""r8"">1577325348657</Timestamp><Current dt:dt=""r8"">0</Current><DateUtc dt:dt=""string"">2025-01-15T18:02:55Z</DateUtc></FrequencyChange></FrequencyChanges></Clock>\n",3.0.3.43,3.0.3.60,3.0.3.60,Full,1.0.0.8,Keyboard,Keyboard
Proc4,,List12,,,,,,,,402,1,404,404,Keyboard,5649,1,0,,2,,,,,,,,,,,,,,,,,,,,,,,,,,,,,,9,1,9,,,,,,,,,,DelayDiscountingTitrated,01-15-2025,13:02:56,1/15/2025 6:02:56 PM,1064,1,8,DelayDiscountingTitrated-1064-1,1075032374,1,75.006,"<?xml version=""1.0""?>\n<Clock xmlns:dt=""urn:schemas-microsoft-com:datatypes""><Description dt:dt=""string"">E-Prime Primary Realtime Clock</Description><StartTime><Timestamp dt:dt=""int"">0</Timestamp><DateUtc dt:dt=""string"">2025-01-15T18:02:55Z</DateUtc></StartTime><FrequencyChanges><FrequencyChange><Frequency dt:dt=""r8"">10000000</Frequency><Timestamp dt:dt=""r8"">1577325348657</Timestamp><Current dt:dt=""r8"">0</Current><DateUtc dt:dt=""string"">2025-01-15T18:02:55Z</DateUtc></FrequencyChange></FrequencyChanges></Clock>\n",3.0.3.43,3.0.3.60,3.0.3.60,Full,1.0.0.8,Keyboard,Keyboard
Proc4,,List12,,,,,,,,401,1,402,402,Keyboard,2964,1,0,,1,,,,,,,,,,,,,,,,,,,,,,,,,,,,,,10,1,10,,,,,,,,,,DelayDiscountingTitrated,01-15-2025,13:02:56,1/15/2025 6:02:56 PM,1064,1,8,DelayDiscountingTitrated-1064-1,1075032374,1,75.006,"<?xml version=""1.0""?>\n<Clock xmlns:dt=""urn:schemas-microsoft-com:datatypes""><Description dt:dt=""string"">E-Prime Primary Realtime Clock</Description><StartTime><Timestamp dt:dt=""int"">0</Timestamp><DateUtc dt:dt=""string"">2025-01-15T18:02:55Z</DateUtc></StartTime><FrequencyChanges><FrequencyChange><Frequency dt:dt=""r8"">10000000</Frequency><Timestamp dt:dt=""r8"">1577325348657</Timestamp><Current dt:dt=""r8"">0</Current><DateUtc dt:dt=""string"">2025-01-15T18:02:55Z</DateUtc></FrequencyChange></FrequencyChanges></Clock>\n",3.0.3.43,3.0.3.60,3.0.3.60,Full,1.0.0.8,Keyboard,Keyboard
Proc4,,List12,,,,,,,,401,3,402,401,Keyboard,726,3,0,,,,,,,,,,,,,,,,,,,,,,,,,,,,,,,,11,1,11,,,,,,,,,,DelayDiscountingTitrated,01-15-2025,13:02:56,1/15/2025 6:02:56 PM,1064,1,8,DelayDiscountingTitrated-1064-1,1075032374,1,75.006,"<?xml version=""1.0""?>\n<Clock xmlns:dt=""urn:schemas-microsoft-com:datatypes""><Description dt:dt=""string"">E-Prime Primary Realtime Clock</Description><StartTime><Timestamp dt:dt=""int"">0</Timestamp><DateUtc dt:dt=""string"">2025-01-15T18:02:55Z</DateUtc></StartTime><FrequencyChanges><FrequencyChange><Frequency dt:dt=""r8"">10000000</Frequency><Timestamp dt:dt=""r8"">1577325348657</Timestamp><Current dt:dt=""r8"">0</Current><DateUtc dt:dt=""string"">2025-01-15T18:02:55Z</DateUtc></FrequencyChange></FrequencyChanges></Clock>\n",3.0.3.43,3.0.3.60,3.0.3.60,Full,1.0.0.8,Keyboard,Keyboard
discount4,,List7,,,,,,,,,,,,,,,,,,800,5 years,,1825,,,,,,,,,,,,,,,,,,,,,,,,,,,,,3,1,1,,,,,,,DelayDiscountingTitrated,01-15-2025,13:02:56,1/15/2025 6:02:56 PM,1064,1,8,DelayDiscountingTitrated-1064-1,1075032374,1,75.006,"<?xml version=""1.0""?>\n<Clock xmlns:dt=""urn:schemas-microsoft-com:datatypes""><Description dt:dt=""string"">E-Prime Primary Realtime Clock</Description><StartTime><Timestamp dt:dt=""int"">0</Timestamp><DateUtc dt:dt=""string"">2025-01-15T18:02:55Z</DateUtc></StartTime><FrequencyChanges><FrequencyChange><Frequency dt:dt=""r8"">10000000</Frequency><Timestamp dt:dt=""r8"">1577325348657</Timestamp><Current dt:dt=""r8"">0</Current><DateUtc dt:dt=""string"">2025-01-15T18:02:55Z</DateUtc></FrequencyChange></FrequencyChanges></Clock>\n",3.0.3.43,3.0.3.60,3.0.3.60,Full,1.0.0.8,Keyboard,Keyboard
fiveyearproc,,List1,,,,,,,,,,,,,,,,,,,,,,,,5,1,5,5,Keyboard,,,,,,,,,,,,,,,,,,,,,,,,,,,,,,,DelayDiscountingTitrated,01-15-2025,13:02:56,1/15/2025 6:02:56 PM,1064,1,8,DelayDiscountingTitrated-1064-1,1075032374,1,75.006,"<?xml version=""1.0""?>\n<Clock xmlns:dt=""urn:schemas-microsoft-com:datatypes""><Description dt:dt=""string"">E-Prime Primary Realtime Clock</Description><StartTime><Timestamp dt:dt=""int"">0</Timestamp><DateUtc dt:dt=""string"">2025-01-15T18:02:55Z</DateUtc></StartTime><FrequencyChanges><FrequencyChange><Frequency dt:dt=""r8"">10000000</Frequency><Timestamp dt:dt=""r8"">1577325348657</Timestamp><Current dt:dt=""r8"">0</Current><DateUtc dt:dt=""string"">2025-01-15T18:02:55Z</DateUtc></FrequencyChange></FrequencyChanges></Clock>\n",3.0.3.43,3.0.3.60,3.0.3.60,Full,1.0.0.8,Keyboard,Keyboard
Init2,,List10,,,Keyboard,8681,1,0,,400,1,800,,,,,,,,,,,,,,,,,,,,,,,,,,,,,,,,,,,,,,,,,,,1,1,1,,,,DelayDiscountingTitrated,01-15-2025,13:02:56,1/15/2025 6:02:56 PM,1064,1,8,DelayDiscountingTitrated-1064-1,1075032374,1,75.006,"<?xml version=""1.0""?>\n<Clock xmlns:dt=""urn:schemas-microsoft-com:datatypes""><Description dt:dt=""string"">E-Prime Primary Realtime Clock</Description><StartTime><Timestamp dt:dt=""int"">0</Timestamp><DateUtc dt:dt=""string"">2025-01-15T18:02:55Z</DateUtc></StartTime><FrequencyChanges><FrequencyChange><Frequency dt:dt=""r8"">10000000</Frequency><Timestamp dt:dt=""r8"">1577325348657</Timestamp><Current dt:dt=""r8"">0</Current><DateUtc dt:dt=""string"">2025-01-15T18:02:55Z</DateUtc></FrequencyChange></FrequencyChanges></Clock>\n",3.0.3.43,3.0.3.60,3.0.3.60,Full,1.0.0.8,Keyboard,Keyboard
Proc2,,List10,,,,,,,,200,1,400,400,Keyboard,5218,1,0,,200,,,,,,,,,,,,,,,,,,,,,,,,,,,,,,,,,,,,2,1,2,,,,DelayDiscountingTitrated,01-15-2025,13:02:56,1/15/2025 6:02:56 PM,1064,1,8,DelayDiscountingTitrated-1064-1,1075032374,1,75.006,"<?xml version=""1.0""?>\n<Clock xmlns:dt=""urn:schemas-microsoft-com:datatypes""><Description dt:dt=""string"">E-Prime Primary Realtime Clock</Description><StartTime><Timestamp dt:dt=""int"">0</Timestamp><DateUtc dt:dt=""string"">2025-01-15T18:02:55Z</DateUtc></StartTime><FrequencyChanges><FrequencyChange><Frequency dt:dt=""r8"">10000000</Frequency><Timestamp dt:dt=""r8"">1577325348657</Timestamp><Current dt:dt=""r8"">0</Current><DateUtc dt:dt=""string"">2025-01-15T18:02:55Z</DateUtc></FrequencyChange></FrequencyChanges></Clock>\n",3.0.3.43,3.0.3.60,3.0.3.60,Full,1.0.0.8,Keyboard,Keyboard
Proc2,,List10,,,,,,,,100,1,200,200,Keyboard,964,1,0,,100,,,,,,,,,,,,,,,,,,,,,,,,,,,,,,,,,,,,3,1,3,,,,DelayDiscountingTitrated,01-15-2025,13:02:56,1/15/2025 6:02:56 PM,1064,1,8,DelayDiscountingTitrated-1064-1,1075032374,1,75.006,"<?xml version=""1.0""?>\n<Clock xmlns:dt=""urn:schemas-microsoft-com:datatypes""><Description dt:dt=""string"">E-Prime Primary Realtime Clock</Description><StartTime><Timestamp dt:dt=""int"">0</Timestamp><DateUtc dt:dt=""string"">2025-01-15T18:02:55Z</DateUtc></StartTime><FrequencyChanges><FrequencyChange><Frequency dt:dt=""r8"">10000000</Frequency><Timestamp dt:dt=""r8"">1577325348657</Timestamp><Current dt:dt=""r8"">0</Current><DateUtc dt:dt=""string"">2025-01-15T18:02:55Z</DateUtc></FrequencyChange></FrequencyChanges></Clock>\n",3.0.3.43,3.0.3.60,3.0.3.60,Full,1.0.0.8,Keyboard,Keyboard
Proc2,,List10,,,,,,,,50,1,100,100,Keyboard,6407,1,0,,50,,,,,,,,,,,,,,,,,,,,,,,,,,,,,,,,,,,,4,1,4,,,,DelayDiscountingTitrated,01-15-2025,13:02:56,1/15/2025 6:02:56 PM,1064,1,8,DelayDiscountingTitrated-1064-1,1075032374,1,75.006,"<?xml version=""1.0""?>\n<Clock xmlns:dt=""urn:schemas-microsoft-com:datatypes""><Description dt:dt=""string"">E-Prime Primary Realtime Clock</Description><StartTime><Timestamp dt:dt=""int"">0</Timestamp><DateUtc dt:dt=""string"">2025-01-15T18:02:55Z</DateUtc></StartTime><FrequencyChanges><FrequencyChange><Frequency dt:dt=""r8"">10000000</Frequency><Timestamp dt:dt=""r8"">1577325348657</Timestamp><Current dt:dt=""r8"">0</Current><DateUtc dt:dt=""string"">2025-01-15T18:02:55Z</DateUtc></FrequencyChange></FrequencyChanges></Clock>\n",3.0.3.43,3.0.3.60,3.0.3.60,Full,1.0.0.8,Keyboard,Keyboard
Proc2,,List10,,,,,,,,25,1,50,50,Keyboard,1920,1,0,,25,,,,,,,,,,,,,,,,,,,,,,,,,,,,,,,,,,,,5,1,5,,,,DelayDiscountingTitrated,01-15-2025,13:02:56,1/15/2025 6:02:56 PM,1064,1,8,DelayDiscountingTitrated-1064-1,1075032374,1,75.006,"<?xml version=""1.0""?>\n<Clock xmlns:dt=""urn:schemas-microsoft-com:datatypes""><Description dt:dt=""string"">E-Prime Primary Realtime Clock</Description><StartTime><Timestamp dt:dt=""int"">0</Timestamp><DateUtc dt:dt=""string"">2025-01-15T18:02:55Z</DateUtc></StartTime><FrequencyChanges><FrequencyChange><Frequency dt:dt=""r8"">10000000</Frequency><Timestamp dt:dt=""r8"">1577325348657</Timestamp><Current dt:dt=""r8"">0</Current><DateUtc dt:dt=""string"">2025-01-15T18:02:55Z</DateUtc></FrequencyChange></FrequencyChanges></Clock>\n",3.0.3.43,3.0.3.60,3.0.3.60,Full,1.0.0.8,Keyboard,Keyboard
Proc2,,List10,,,,,,,,37,3,25,25,Keyboard,3053,3,0,,12,,,,,,,,,,,,,,,,,,,,,,,,,,,,,,,,,,,,6,1,6,,,,DelayDiscountingTitrated,01-15-2025,13:02:56,1/15/2025 6:02:56 PM,1064,1,8,DelayDiscountingTitrated-1064-1,1075032374,1,75.006,"<?xml version=""1.0""?>\n<Clock xmlns:dt=""urn:schemas-microsoft-com:datatypes""><Description dt:dt=""string"">E-Prime Primary Realtime Clock</Description><StartTime><Timestamp dt:dt=""int"">0</Timestamp><DateUtc dt:dt=""string"">2025-01-15T18:02:55Z</DateUtc></StartTime><FrequencyChanges><FrequencyChange><Frequency dt:dt=""r8"">10000000</Frequency><Timestamp dt:dt=""r8"">1577325348657</Timestamp><Current dt:dt=""r8"">0</Current><DateUtc dt:dt=""string"">2025-01-15T18:02:55Z</DateUtc></FrequencyChange></FrequencyChanges></Clock>\n",3.0.3.43,3.0.3.60,3.0.3.60,Full,1.0.0.8,Keyboard,Keyboard
Proc2,,List10,,,,,,,,43,3,37,37,Keyboard,905,3,0,,6,,,,,,,,,,,,,,,,,,,,,,,,,,,,,,,,,,,,7,1,7,,,,DelayDiscountingTitrated,01-15-2025,13:02:56,1/15/2025 6:02:56 PM,1064,1,8,DelayDiscountingTitrated-1064-1,1075032374,1,75.006,"<?xml version=""1.0""?>\n<Clock xmlns:dt=""urn:schemas-microsoft-com:datatypes""><Description dt:dt=""string"">E-Prime Primary Realtime Clock</Description><StartTime><Timestamp dt:dt=""int"">0</Timestamp><DateUtc dt:dt=""string"">2025-01-15T18:02:55Z</DateUtc></StartTime><FrequencyChanges><FrequencyChange><Frequency dt:dt=""r8"">10000000</Frequency><Timestamp dt:dt=""r8"">1577325348657</Timestamp><Current dt:dt=""r8"">0</Current><DateUtc dt:dt=""string"">2025-01-15T18:02:55Z</DateUtc></FrequencyChange></FrequencyChanges></Clock>\n",3.0.3.43,3.0.3.60,3.0.3.60,Full,1.0.0.8,Keyboard,Keyboard
Proc2,,List10,,,,,,,,46,3,43,43,Keyboard,2506,3,0,,3,,,,,,,,,,,,,,,,,,,,,,,,,,,,,,,,,,,,8,1,8,,,,DelayDiscountingTitrated,01-15-2025,13:02:56,1/15/2025 6:02:56 PM,1064,1,8,DelayDiscountingTitrated-1064-1,1075032374,1,75.006,"<?xml version=""1.0""?>\n<Clock xmlns:dt=""urn:schemas-microsoft-com:datatypes""><Description dt:dt=""string"">E-Prime Primary Realtime Clock</Description><StartTime><Timestamp dt:dt=""int"">0</Timestamp><DateUtc dt:dt=""string"">2025-01-15T18:02:55Z</DateUtc></StartTime><FrequencyChanges><FrequencyChange><Frequency dt:dt=""r8"">10000000</Frequency><Timestamp dt:dt=""r8"">1577325348657</Timestamp><Current dt:dt=""r8"">0</Current><DateUtc dt:dt=""string"">2025-01-15T18:02:55Z</DateUtc></FrequencyChange></FrequencyChanges></Clock>\n",3.0.3.43,3.0.3.60,3.0.3.60,Full,1.0.0.8,Keyboard,Keyboard
Proc2,,List10,,,,,,,,48,3,46,46,Keyboard,682,3,0,,2,,,,,,,,,,,,,,,,,,,,,,,,,,,,,,,,,,,,9,1,9,,,,DelayDiscountingTitrated,01-15-2025,13:02:56,1/15/2025 6:02:56 PM,1064,1,8,DelayDiscountingTitrated-1064-1,1075032374,1,75.006,"<?xml version=""1.0""?>\n<Clock xmlns:dt=""urn:schemas-microsoft-com:datatypes""><Description dt:dt=""string"">E-Prime Primary Realtime Clock</Description><StartTime><Timestamp dt:dt=""int"">0</Timestamp><DateUtc dt:dt=""string"">2025-01-15T18:02:55Z</DateUtc></StartTime><FrequencyChanges><FrequencyChange><Frequency dt:dt=""r8"">10000000</Frequency><Timestamp dt:dt=""r8"">1577325348657</Timestamp><Current dt:dt=""r8"">0</Current><DateUtc dt:dt=""string"">2025-01-15T18:02:55Z</DateUtc></FrequencyChange></FrequencyChanges></Clock>\n",3.0.3.43,3.0.3.60,3.0.3.60,Full,1.0.0.8,Keyboard,Keyboard
Proc2,,List10,,,,,,,,47,1,48,48,Keyboard,906,1,0,,1,,,,,,,,,,,,,,,,,,,,,,,,,,,,,,,,,,,,10,1,10,,,,DelayDiscountingTitrated,01-15-2025,13:02:56,1/15/2025 6:02:56 PM,1064,1,8,DelayDiscountingTitrated-1064-1,1075032374,1,75.006,"<?xml version=""1.0""?>\n<Clock xmlns:dt=""urn:schemas-microsoft-com:datatypes""><Description dt:dt=""string"">E-Prime Primary Realtime Clock</Description><StartTime><Timestamp dt:dt=""int"">0</Timestamp><DateUtc dt:dt=""string"">2025-01-15T18:02:55Z</DateUtc></StartTime><FrequencyChanges><FrequencyChange><Frequency dt:dt=""r8"">10000000</Frequency><Timestamp dt:dt=""r8"">1577325348657</Timestamp><Current dt:dt=""r8"">0</Current><DateUtc dt:dt=""string"">2025-01-15T18:02:55Z</DateUtc></FrequencyChange></FrequencyChanges></Clock>\n",3.0.3.43,3.0.3.60,3.0.3.60,Full,1.0.0.8,Keyboard,Keyboard
Proc2,,List10,,,,,,,,47,3,48,47,Keyboard,1189,3,0,,,,,,,,,,,,,,,,,,,,,,,,,,,,,,,,,,,,,,11,1,11,,,,DelayDiscountingTitrated,01-15-2025,13:02:56,1/15/2025 6:02:56 PM,1064,1,8,DelayDiscountingTitrated-1064-1,1075032374,1,75.006,"<?xml version=""1.0""?>\n<Clock xmlns:dt=""urn:schemas-microsoft-com:datatypes""><Description dt:dt=""string"">E-Prime Primary Realtime Clock</Description><StartTime><Timestamp dt:dt=""int"">0</Timestamp><DateUtc dt:dt=""string"">2025-01-15T18:02:55Z</DateUtc></StartTime><FrequencyChanges><FrequencyChange><Frequency dt:dt=""r8"">10000000</Frequency><Timestamp dt:dt=""r8"">1577325348657</Timestamp><Current dt:dt=""r8"">0</Current><DateUtc dt:dt=""string"">2025-01-15T18:02:55Z</DateUtc></FrequencyChange></FrequencyChanges></Clock>\n",3.0.3.43,3.0.3.60,3.0.3.60,Full,1.0.0.8,Keyboard,Keyboard
discount2,,List5,,,,,,,,,,,,,,,,,,800,6 month,,180,,,,,,,,,,,,,,,,,,,,,,,,,,,,,,,,,,,3,1,1,DelayDiscountingTitrated,01-15-2025,13:02:56,1/15/2025 6:02:56 PM,1064,1,8,DelayDiscountingTitrated-1064-1,1075032374,1,75.006,"<?xml version=""1.0""?>\n<Clock xmlns:dt=""urn:schemas-microsoft-com:datatypes""><Description dt:dt=""string"">E-Prime Primary Realtime Clock</Description><StartTime><Timestamp dt:dt=""int"">0</Timestamp><DateUtc dt:dt=""string"">2025-01-15T18:02:55Z</DateUtc></StartTime><FrequencyChanges><FrequencyChange><Frequency dt:dt=""r8"">10000000</Frequency><Timestamp dt:dt=""r8"">1577325348657</Timestamp><Current dt:dt=""r8"">0</Current><DateUtc dt:dt=""string"">2025-01-15T18:02:55Z</DateUtc></FrequencyChange></FrequencyChanges></Clock>\n",3.0.3.43,3.0.3.60,3.0.3.60,Full,1.0.0.8,Keyboard,Keyboard
sixmthproc,,List1,,,,,,,,,,,,,,,,,,,,,,,,3,1,6,6,Keyboard,,,,,,,,,,,,,,,,,,,,,,,,,,,,,,,DelayDiscountingTitrated,01-15-2025,13:02:56,1/15/2025 6:02:56 PM,1064,1,8,DelayDiscountingTitrated-1064-1,1075032374,1,75.006,"<?xml version=""1.0""?>\n<Clock xmlns:dt=""urn:schemas-microsoft-com:datatypes""><Description dt:dt=""string"">E-Prime Primary Realtime Clock</Description><StartTime><Timestamp dt:dt=""int"">0</Timestamp><DateUtc dt:dt=""string"">2025-01-15T18:02:55Z</DateUtc></StartTime><FrequencyChanges><FrequencyChange><Frequency dt:dt=""r8"">10000000</Frequency><Timestamp dt:dt=""r8"">1577325348657</Timestamp><Current dt:dt=""r8"">0</Current><DateUtc dt:dt=""string"">2025-01-15T18:02:55Z</DateUtc></FrequencyChange></FrequencyChanges></Clock>\n",3.0.3.43,3.0.3.60,3.0.3.60,Full,1.0.0.8,Keyboard,Keyboard
,,,,,,,,,,,,,,,,,,,,,,,,,,,,,,,,,,,,,,,,,,,,,,,,,,,,,,,,,,,,,DelayDiscountingTitrated,01-15-2025,13:02:56,1/15/2025 6:02:56 PM,1064,1,8,DelayDiscountingTitrated-1064-1,1075032374,1,75.006,"<?xml version=""1.0""?>\n<Clock xmlns:dt=""urn:schemas-microsoft-com:datatypes""><Description dt:dt=""string"">E-Prime Primary Realtime Clock</Description><StartTime><Timestamp dt:dt=""int"">0</Timestamp><DateUtc dt:dt=""string"">2025-01-15T18:02:55Z</DateUtc></StartTime><FrequencyChanges><FrequencyChange><Frequency dt:dt=""r8"">10000000</Frequency><Timestamp dt:dt=""r8"">1577325348657</Timestamp><Current dt:dt=""r8"">0</Current><DateUtc dt:dt=""string"">2025-01-15T18:02:55Z</DateUtc></FrequencyChange></FrequencyChanges></Clock>\n",3.0.3.43,3.0.3.60,3.0.3.60,Full,1.0.0.8,Keyboard,Keyboard
