Procedure,List13,Running,List13.Cycle,List13.Sample,Slide2.RT,Slide2.RESP,Slide4.RT,Slide4.RESP,immed3,respprev,prevalue,imstring,Slide1.RT,Slide1.RESP,Slide5.RT,Slide5.RESP,immed5,immed,delaypd,timedays,List8,List8.Cycle,List8.Sample,List1,List1.Cycle,List1.Sample,roundnumber,List10,List10.Cycle,List10.Sample,List5,List5.Cycle,List5.Sample,List11,List11.Cycle,List11.Sample,List6,List6.Cycle,List6.Sample,List12,List12.Cycle,List12.Sample,List7,List7.Cycle,List7.Sample,List9,List9.Cycle,List9.Sample,List4,List4.Cycle,List4.Sample,List2,List2.Cycle,List2.Sample,List3,List3.Cycle,List3.Sample,Experiment,SessionDate,SessionTime,SessionStartDateTimeUtc,Subject,Session,Age,DataFile.Basename,RandomSeed,Group,Display.RefreshRate,Clock.Information,StudioVersion,RuntimeVersion,RuntimeVersionExpected,RuntimeCapabilities,ExperimentVersion
Init5,1,List13,1,1,5378,3,0,,900,3,800,,,,,,,,,,,,,,,,,,,,,,,,,,,,,,,,,,,,,,,,,,,,,,,DelayDiscountingTitrated Backup1,05-20-2024,09:58:57,5/20/2024 1:58:57 PM,2033,1,17,DelayDiscountingTitrated Backup1-2033-1,533347338,1,60.020,"<?xml version=""1.0""?>\n<Clock xmlns:dt=""urn:schemas-microsoft-com:datatypes""><Description dt:dt=""string"">E-Prime Primary Realtime Clock</Description><StartTime><Timestamp dt:dt=""int"">0</Timestamp><DateUtc dt:dt=""string"">2024-05-20T13:58:57Z</DateUtc></StartTime><FrequencyChanges><FrequencyChange><Frequency dt:dt=""r8"">10000000</Frequency><Timestamp dt:dt=""r8"">11519633580227</Timestamp><Current dt:dt=""r8"">0</Current><DateUtc dt:dt=""string"">2024-05-20T13:58:57Z</DateUtc></FrequencyChange></FrequencyChanges></Clock>\n",2.0.10.252,2.0.10.356,2.0.10.356,Professional,1.0.0.1
Proc5,2,List13,1,2,,,,,950,3,900,900,13730,3,0,,50,,,,,,,,,,,,,,,,,,,,,,,,,,,,,,,,,,,,,,,,,DelayDiscountingTitrated Backup1,05-20-2024,09:58:57,5/20/2024 1:58:57 PM,2033,1,17,DelayDiscountingTitrated Backup1-2033-1,533347338,1,60.020,"<?xml version=""1.0""?>\n<Clock xmlns:dt=""urn:schemas-microsoft-com:datatypes""><Description dt:dt=""string"">E-Prime Primary Realtime Clock</Description><StartTime><Timestamp dt:dt=""int"">0</Timestamp><DateUtc dt:dt=""string"">2024-05-20T13:58:57Z</DateUtc></StartTime><FrequencyChanges><FrequencyChange><Frequency dt:dt=""r8"">10000000</Frequency><Timestamp dt:dt=""r8"">11519633580227</Timestamp><Current dt:dt=""r8"">0</Current><DateUtc dt:dt=""string"">2024-05-20T13:58:57Z</DateUtc></FrequencyChange></FrequencyChanges></Clock>\n",2.0.10.252,2.0.10.356,2.0.10.356,Professional,1.0.0.1
Proc5,3,List13,1,3,,,,,975,3,950,950,10463,3,0,,25,,,,,,,,,,,,,,,,,,,,,,,,,,,,,,,,,,,,,,,,,DelayDiscountingTitrated Backup1,05-20-2024,09:58:57,5/20/2024 1:58:57 PM,2033,1,17,DelayDiscountingTitrated Backup1-2033-1,533347338,1,60.020,"<?xml version=""1.0""?>\n<Clock xmlns:dt=""urn:schemas-microsoft-com:datatypes""><Description dt:dt=""string"">E-Prime Primary Realtime Clock</Description><StartTime><Timestamp dt:dt=""int"">0</Timestamp><DateUtc dt:dt=""string"">2024-05-20T13:58:57Z</DateUtc></StartTime><FrequencyChanges><FrequencyChange><Frequency dt:dt=""r8"">10000000</Frequency><Timestamp dt:dt=""r8"">11519633580227</Timestamp><Current dt:dt=""r8"">0</Current><DateUtc dt:dt=""string"">2024-05-20T13:58:57Z</DateUtc></FrequencyChange></FrequencyChanges></Clock>\n",2.0.10.252,2.0.10.356,2.0.10.356,Professional,1.0.0.1
Proc5,4,List13,1,4,,,,,963,1,975,975,3478,1,0,,12,,,,,,,,,,,,,,,,,,,,,,,,,,,,,,,,,,,,,,,,,DelayDiscountingTitrated Backup1,05-20-2024,09:58:57,5/20/2024 1:58:57 PM,2033,1,17,DelayDiscountingTitrated Backup1-2033-1,533347338,1,60.020,"<?xml version=""1.0""?>\n<Clock xmlns:dt=""urn:schemas-microsoft-com:datatypes""><Description dt:dt=""string"">E-Prime Primary Realtime Clock</Description><StartTime><Timestamp dt:dt=""int"">0</Timestamp><DateUtc dt:dt=""string"">2024-05-20T13:58:57Z</DateUtc></StartTime><FrequencyChanges><FrequencyChange><Frequency dt:dt=""r8"">10000000</Frequency><Timestamp dt:dt=""r8"">11519633580227</Timestamp><Current dt:dt=""r8"">0</Current><DateUtc dt:dt=""string"">2024-05-20T13:58:57Z</DateUtc></FrequencyChange></FrequencyChanges></Clock>\n",2.0.10.252,2.0.10.356,2.0.10.356,Professional,1.0.0.1
Proc5,5,List13,1,5,,,,,957,1,963,963,4250,1,0,,6,,,,,,,,,,,,,,,,,,,,,,,,,,,,,,,,,,,,,,,,,DelayDiscountingTitrated Backup1,05-20-2024,09:58:57,5/20/2024 1:58:57 PM,2033,1,17,DelayDiscountingTitrated Backup1-2033-1,533347338,1,60.020,"<?xml version=""1.0""?>\n<Clock xmlns:dt=""urn:schemas-microsoft-com:datatypes""><Description dt:dt=""string"">E-Prime Primary Realtime Clock</Description><StartTime><Timestamp dt:dt=""int"">0</Timestamp><DateUtc dt:dt=""string"">2024-05-20T13:58:57Z</DateUtc></StartTime><FrequencyChanges><FrequencyChange><Frequency dt:dt=""r8"">10000000</Frequency><Timestamp dt:dt=""r8"">11519633580227</Timestamp><Current dt:dt=""r8"">0</Current><DateUtc dt:dt=""string"">2024-05-20T13:58:57Z</DateUtc></FrequencyChange></FrequencyChanges></Clock>\n",2.0.10.252,2.0.10.356,2.0.10.356,Professional,1.0.0.1
Proc5,6,List13,1,6,,,,,960,3,957,957,2376,3,0,,3,,,,,,,,,,,,,,,,,,,,,,,,,,,,,,,,,,,,,,,,,DelayDiscountingTitrated Backup1,05-20-2024,09:58:57,5/20/2024 1:58:57 PM,2033,1,17,DelayDiscountingTitrated Backup1-2033-1,533347338,1,60.020,"<?xml version=""1.0""?>\n<Clock xmlns:dt=""urn:schemas-microsoft-com:datatypes""><Description dt:dt=""string"">E-Prime Primary Realtime Clock</Description><StartTime><Timestamp dt:dt=""int"">0</Timestamp><DateUtc dt:dt=""string"">2024-05-20T13:58:57Z</DateUtc></StartTime><FrequencyChanges><FrequencyChange><Frequency dt:dt=""r8"">10000000</Frequency><Timestamp dt:dt=""r8"">11519633580227</Timestamp><Current dt:dt=""r8"">0</Current><DateUtc dt:dt=""string"">2024-05-20T13:58:57Z</DateUtc></FrequencyChange></FrequencyChanges></Clock>\n",2.0.10.252,2.0.10.356,2.0.10.356,Professional,1.0.0.1
Proc5,7,List13,1,7,,,,,962,3,960,960,4336,3,0,,2,,,,,,,,,,,,,,,,,,,,,,,,,,,,,,,,,,,,,,,,,DelayDiscountingTitrated Backup1,05-20-2024,09:58:57,5/20/2024 1:58:57 PM,2033,1,17,DelayDiscountingTitrated Backup1-2033-1,533347338,1,60.020,"<?xml version=""1.0""?>\n<Clock xmlns:dt=""urn:schemas-microsoft-com:datatypes""><Description dt:dt=""string"">E-Prime Primary Realtime Clock</Description><StartTime><Timestamp dt:dt=""int"">0</Timestamp><DateUtc dt:dt=""string"">2024-05-20T13:58:57Z</DateUtc></StartTime><FrequencyChanges><FrequencyChange><Frequency dt:dt=""r8"">10000000</Frequency><Timestamp dt:dt=""r8"">11519633580227</Timestamp><Current dt:dt=""r8"">0</Current><DateUtc dt:dt=""string"">2024-05-20T13:58:57Z</DateUtc></FrequencyChange></FrequencyChanges></Clock>\n",2.0.10.252,2.0.10.356,2.0.10.356,Professional,1.0.0.1
Proc5,8,List13,1,8,,,,,961,1,962,962,3386,1,0,,1,,,,,,,,,,,,,,,,,,,,,,,,,,,,,,,,,,,,,,,,,DelayDiscountingTitrated Backup1,05-20-2024,09:58:57,5/20/2024 1:58:57 PM,2033,1,17,DelayDiscountingTitrated Backup1-2033-1,533347338,1,60.020,"<?xml version=""1.0""?>\n<Clock xmlns:dt=""urn:schemas-microsoft-com:datatypes""><Description dt:dt=""string"">E-Prime Primary Realtime Clock</Description><StartTime><Timestamp dt:dt=""int"">0</Timestamp><DateUtc dt:dt=""string"">2024-05-20T13:58:57Z</DateUtc></StartTime><FrequencyChanges><FrequencyChange><Frequency dt:dt=""r8"">10000000</Frequency><Timestamp dt:dt=""r8"">11519633580227</Timestamp><Current dt:dt=""r8"">0</Current><DateUtc dt:dt=""string"">2024-05-20T13:58:57Z</DateUtc></FrequencyChange></FrequencyChanges></Clock>\n",2.0.10.252,2.0.10.356,2.0.10.356,Professional,1.0.0.1
Proc5,9,List13,1,9,,,,,961,3,962,961,2770,3,0,,,,,,,,,,,,,,,,,,,,,,,,,,,,,,,,,,,,,,,,,,,DelayDiscountingTitrated Backup1,05-20-2024,09:58:57,5/20/2024 1:58:57 PM,2033,1,17,DelayDiscountingTitrated Backup1-2033-1,533347338,1,60.020,"<?xml version=""1.0""?>\n<Clock xmlns:dt=""urn:schemas-microsoft-com:datatypes""><Description dt:dt=""string"">E-Prime Primary Realtime Clock</Description><StartTime><Timestamp dt:dt=""int"">0</Timestamp><DateUtc dt:dt=""string"">2024-05-20T13:58:57Z</DateUtc></StartTime><FrequencyChanges><FrequencyChange><Frequency dt:dt=""r8"">10000000</Frequency><Timestamp dt:dt=""r8"">11519633580227</Timestamp><Current dt:dt=""r8"">0</Current><DateUtc dt:dt=""string"">2024-05-20T13:58:57Z</DateUtc></FrequencyChange></FrequencyChanges></Clock>\n",2.0.10.252,2.0.10.356,2.0.10.356,Professional,1.0.0.1
discount5,,List8,,,,,,,,,,,,,,,,800,15 years,5475,3,2,1,,,,,,,,,,,,,,,,,,,,,,,,,,,,,,,,,,,DelayDiscountingTitrated Backup1,05-20-2024,09:58:57,5/20/2024 1:58:57 PM,2033,1,17,DelayDiscountingTitrated Backup1-2033-1,533347338,1,60.020,"<?xml version=""1.0""?>\n<Clock xmlns:dt=""urn:schemas-microsoft-com:datatypes""><Description dt:dt=""string"">E-Prime Primary Realtime Clock</Description><StartTime><Timestamp dt:dt=""int"">0</Timestamp><DateUtc dt:dt=""string"">2024-05-20T13:58:57Z</DateUtc></StartTime><FrequencyChanges><FrequencyChange><Frequency dt:dt=""r8"">10000000</Frequency><Timestamp dt:dt=""r8"">11519633580227</Timestamp><Current dt:dt=""r8"">0</Current><DateUtc dt:dt=""string"">2024-05-20T13:58:57Z</DateUtc></FrequencyChange></FrequencyChanges></Clock>\n",2.0.10.252,2.0.10.356,2.0.10.356,Professional,1.0.0.1
fifteenyearproc,,List1,,,,,,,,,,,,,,,,,,,,,,6,1,1,1,,,,,,,,,,,,,,,,,,,,,,,,,,,,,,,DelayDiscountingTitrated Backup1,05-20-2024,09:58:57,5/20/2024 1:58:57 PM,2033,1,17,DelayDiscountingTitrated Backup1-2033-1,533347338,1,60.020,"<?xml version=""1.0""?>\n<Clock xmlns:dt=""urn:schemas-microsoft-com:datatypes""><Description dt:dt=""string"">E-Prime Primary Realtime Clock</Description><StartTime><Timestamp dt:dt=""int"">0</Timestamp><DateUtc dt:dt=""string"">2024-05-20T13:58:57Z</DateUtc></StartTime><FrequencyChanges><FrequencyChange><Frequency dt:dt=""r8"">10000000</Frequency><Timestamp dt:dt=""r8"">11519633580227</Timestamp><Current dt:dt=""r8"">0</Current><DateUtc dt:dt=""string"">2024-05-20T13:58:57Z</DateUtc></FrequencyChange></FrequencyChanges></Clock>\n",2.0.10.252,2.0.10.356,2.0.10.356,Professional,1.0.0.1
Init2,,List10,,,6272,3,0,,900,3,800,,,,,,,,,,,,,,,,,1,1,1,,,,,,,,,,,,,,,,,,,,,,,,,,,,DelayDiscountingTitrated Backup1,05-20-2024,09:58:57,5/20/2024 1:58:57 PM,2033,1,17,DelayDiscountingTitrated Backup1-2033-1,533347338,1,60.020,"<?xml version=""1.0""?>\n<Clock xmlns:dt=""urn:schemas-microsoft-com:datatypes""><Description dt:dt=""string"">E-Prime Primary Realtime Clock</Description><StartTime><Timestamp dt:dt=""int"">0</Timestamp><DateUtc dt:dt=""string"">2024-05-20T13:58:57Z</DateUtc></StartTime><FrequencyChanges><FrequencyChange><Frequency dt:dt=""r8"">10000000</Frequency><Timestamp dt:dt=""r8"">11519633580227</Timestamp><Current dt:dt=""r8"">0</Current><DateUtc dt:dt=""string"">2024-05-20T13:58:57Z</DateUtc></FrequencyChange></FrequencyChanges></Clock>\n",2.0.10.252,2.0.10.356,2.0.10.356,Professional,1.0.0.1
Proc2,,List10,,,,,,,950,3,900,900,3518,3,0,,50,,,,,,,,,,,2,1,2,,,,,,,,,,,,,,,,,,,,,,,,,,,,DelayDiscountingTitrated Backup1,05-20-2024,09:58:57,5/20/2024 1:58:57 PM,2033,1,17,DelayDiscountingTitrated Backup1-2033-1,533347338,1,60.020,"<?xml version=""1.0""?>\n<Clock xmlns:dt=""urn:schemas-microsoft-com:datatypes""><Description dt:dt=""string"">E-Prime Primary Realtime Clock</Description><StartTime><Timestamp dt:dt=""int"">0</Timestamp><DateUtc dt:dt=""string"">2024-05-20T13:58:57Z</DateUtc></StartTime><FrequencyChanges><FrequencyChange><Frequency dt:dt=""r8"">10000000</Frequency><Timestamp dt:dt=""r8"">11519633580227</Timestamp><Current dt:dt=""r8"">0</Current><DateUtc dt:dt=""string"">2024-05-20T13:58:57Z</DateUtc></FrequencyChange></FrequencyChanges></Clock>\n",2.0.10.252,2.0.10.356,2.0.10.356,Professional,1.0.0.1
Proc2,,List10,,,,,,,925,1,950,950,1184,1,0,,25,,,,,,,,,,,3,1,3,,,,,,,,,,,,,,,,,,,,,,,,,,,,DelayDiscountingTitrated Backup1,05-20-2024,09:58:57,5/20/2024 1:58:57 PM,2033,1,17,DelayDiscountingTitrated Backup1-2033-1,533347338,1,60.020,"<?xml version=""1.0""?>\n<Clock xmlns:dt=""urn:schemas-microsoft-com:datatypes""><Description dt:dt=""string"">E-Prime Primary Realtime Clock</Description><StartTime><Timestamp dt:dt=""int"">0</Timestamp><DateUtc dt:dt=""string"">2024-05-20T13:58:57Z</DateUtc></StartTime><FrequencyChanges><FrequencyChange><Frequency dt:dt=""r8"">10000000</Frequency><Timestamp dt:dt=""r8"">11519633580227</Timestamp><Current dt:dt=""r8"">0</Current><DateUtc dt:dt=""string"">2024-05-20T13:58:57Z</DateUtc></FrequencyChange></FrequencyChanges></Clock>\n",2.0.10.252,2.0.10.356,2.0.10.356,Professional,1.0.0.1
Proc2,,List10,,,,,,,937,3,925,925,2176,3,0,,12,,,,,,,,,,,4,1,4,,,,,,,,,,,,,,,,,,,,,,,,,,,,DelayDiscountingTitrated Backup1,05-20-2024,09:58:57,5/20/2024 1:58:57 PM,2033,1,17,DelayDiscountingTitrated Backup1-2033-1,533347338,1,60.020,"<?xml version=""1.0""?>\n<Clock xmlns:dt=""urn:schemas-microsoft-com:datatypes""><Description dt:dt=""string"">E-Prime Primary Realtime Clock</Description><StartTime><Timestamp dt:dt=""int"">0</Timestamp><DateUtc dt:dt=""string"">2024-05-20T13:58:57Z</DateUtc></StartTime><FrequencyChanges><FrequencyChange><Frequency dt:dt=""r8"">10000000</Frequency><Timestamp dt:dt=""r8"">11519633580227</Timestamp><Current dt:dt=""r8"">0</Current><DateUtc dt:dt=""string"">2024-05-20T13:58:57Z</DateUtc></FrequencyChange></FrequencyChanges></Clock>\n",2.0.10.252,2.0.10.356,2.0.10.356,Professional,1.0.0.1
Proc2,,List10,,,,,,,943,3,937,937,1728,3,0,,6,,,,,,,,,,,5,1,5,,,,,,,,,,,,,,,,,,,,,,,,,,,,DelayDiscountingTitrated Backup1,05-20-2024,09:58:57,5/20/2024 1:58:57 PM,2033,1,17,DelayDiscountingTitrated Backup1-2033-1,533347338,1,60.020,"<?xml version=""1.0""?>\n<Clock xmlns:dt=""urn:schemas-microsoft-com:datatypes""><Description dt:dt=""string"">E-Prime Primary Realtime Clock</Description><StartTime><Timestamp dt:dt=""int"">0</Timestamp><DateUtc dt:dt=""string"">2024-05-20T13:58:57Z</DateUtc></StartTime><FrequencyChanges><FrequencyChange><Frequency dt:dt=""r8"">10000000</Frequency><Timestamp dt:dt=""r8"">11519633580227</Timestamp><Current dt:dt=""r8"">0</Current><DateUtc dt:dt=""string"">2024-05-20T13:58:57Z</DateUtc></FrequencyChange></FrequencyChanges></Clock>\n",2.0.10.252,2.0.10.356,2.0.10.356,Professional,1.0.0.1
Proc2,,List10,,,,,,,946,3,943,943,2442,3,0,,3,,,,,,,,,,,6,1,6,,,,,,,,,,,,,,,,,,,,,,,,,,,,DelayDiscountingTitrated Backup1,05-20-2024,09:58:57,5/20/2024 1:58:57 PM,2033,1,17,DelayDiscountingTitrated Backup1-2033-1,533347338,1,60.020,"<?xml version=""1.0""?>\n<Clock xmlns:dt=""urn:schemas-microsoft-com:datatypes""><Description dt:dt=""string"">E-Prime Primary Realtime Clock</Description><StartTime><Timestamp dt:dt=""int"">0</Timestamp><DateUtc dt:dt=""string"">2024-05-20T13:58:57Z</DateUtc></StartTime><FrequencyChanges><FrequencyChange><Frequency dt:dt=""r8"">10000000</Frequency><Timestamp dt:dt=""r8"">11519633580227</Timestamp><Current dt:dt=""r8"">0</Current><DateUtc dt:dt=""string"">2024-05-20T13:58:57Z</DateUtc></FrequencyChange></FrequencyChanges></Clock>\n",2.0.10.252,2.0.10.356,2.0.10.356,Professional,1.0.0.1
Proc2,,List10,,,,,,,948,3,946,946,2183,3,0,,2,,,,,,,,,,,7,1,7,,,,,,,,,,,,,,,,,,,,,,,,,,,,DelayDiscountingTitrated Backup1,05-20-2024,09:58:57,5/20/2024 1:58:57 PM,2033,1,17,DelayDiscountingTitrated Backup1-2033-1,533347338,1,60.020,"<?xml version=""1.0""?>\n<Clock xmlns:dt=""urn:schemas-microsoft-com:datatypes""><Description dt:dt=""string"">E-Prime Primary Realtime Clock</Description><StartTime><Timestamp dt:dt=""int"">0</Timestamp><DateUtc dt:dt=""string"">2024-05-20T13:58:57Z</DateUtc></StartTime><FrequencyChanges><FrequencyChange><Frequency dt:dt=""r8"">10000000</Frequency><Timestamp dt:dt=""r8"">11519633580227</Timestamp><Current dt:dt=""r8"">0</Current><DateUtc dt:dt=""string"">2024-05-20T13:58:57Z</DateUtc></FrequencyChange></FrequencyChanges></Clock>\n",2.0.10.252,2.0.10.356,2.0.10.356,Professional,1.0.0.1
Proc2,,List10,,,,,,,949,3,948,948,1863,3,0,,1,,,,,,,,,,,8,1,8,,,,,,,,,,,,,,,,,,,,,,,,,,,,DelayDiscountingTitrated Backup1,05-20-2024,09:58:57,5/20/2024 1:58:57 PM,2033,1,17,DelayDiscountingTitrated Backup1-2033-1,533347338,1,60.020,"<?xml version=""1.0""?>\n<Clock xmlns:dt=""urn:schemas-microsoft-com:datatypes""><Description dt:dt=""string"">E-Prime Primary Realtime Clock</Description><StartTime><Timestamp dt:dt=""int"">0</Timestamp><DateUtc dt:dt=""string"">2024-05-20T13:58:57Z</DateUtc></StartTime><FrequencyChanges><FrequencyChange><Frequency dt:dt=""r8"">10000000</Frequency><Timestamp dt:dt=""r8"">11519633580227</Timestamp><Current dt:dt=""r8"">0</Current><DateUtc dt:dt=""string"">2024-05-20T13:58:57Z</DateUtc></FrequencyChange></FrequencyChanges></Clock>\n",2.0.10.252,2.0.10.356,2.0.10.356,Professional,1.0.0.1
Proc2,,List10,,,,,,,949,3,948,949,1931,3,0,,,,,,,,,,,,,9,1,9,,,,,,,,,,,,,,,,,,,,,,,,,,,,DelayDiscountingTitrated Backup1,05-20-2024,09:58:57,5/20/2024 1:58:57 PM,2033,1,17,DelayDiscountingTitrated Backup1-2033-1,533347338,1,60.020,"<?xml version=""1.0""?>\n<Clock xmlns:dt=""urn:schemas-microsoft-com:datatypes""><Description dt:dt=""string"">E-Prime Primary Realtime Clock</Description><StartTime><Timestamp dt:dt=""int"">0</Timestamp><DateUtc dt:dt=""string"">2024-05-20T13:58:57Z</DateUtc></StartTime><FrequencyChanges><FrequencyChange><Frequency dt:dt=""r8"">10000000</Frequency><Timestamp dt:dt=""r8"">11519633580227</Timestamp><Current dt:dt=""r8"">0</Current><DateUtc dt:dt=""string"">2024-05-20T13:58:57Z</DateUtc></FrequencyChange></FrequencyChanges></Clock>\n",2.0.10.252,2.0.10.356,2.0.10.356,Professional,1.0.0.1
discount2,,List5,,,,,,,,,,,,,,,,800,6 month,180,,,,,,,,,,,3,1,1,,,,,,,,,,,,,,,,,,,,,,,,,DelayDiscountingTitrated Backup1,05-20-2024,09:58:57,5/20/2024 1:58:57 PM,2033,1,17,DelayDiscountingTitrated Backup1-2033-1,533347338,1,60.020,"<?xml version=""1.0""?>\n<Clock xmlns:dt=""urn:schemas-microsoft-com:datatypes""><Description dt:dt=""string"">E-Prime Primary Realtime Clock</Description><StartTime><Timestamp dt:dt=""int"">0</Timestamp><DateUtc dt:dt=""string"">2024-05-20T13:58:57Z</DateUtc></StartTime><FrequencyChanges><FrequencyChange><Frequency dt:dt=""r8"">10000000</Frequency><Timestamp dt:dt=""r8"">11519633580227</Timestamp><Current dt:dt=""r8"">0</Current><DateUtc dt:dt=""string"">2024-05-20T13:58:57Z</DateUtc></FrequencyChange></FrequencyChanges></Clock>\n",2.0.10.252,2.0.10.356,2.0.10.356,Professional,1.0.0.1
sixmthproc,,List1,,,,,,,,,,,,,,,,,,,,,,3,1,2,2,,,,,,,,,,,,,,,,,,,,,,,,,,,,,,,DelayDiscountingTitrated Backup1,05-20-2024,09:58:57,5/20/2024 1:58:57 PM,2033,1,17,DelayDiscountingTitrated Backup1-2033-1,533347338,1,60.020,"<?xml version=""1.0""?>\n<Clock xmlns:dt=""urn:schemas-microsoft-com:datatypes""><Description dt:dt=""string"">E-Prime Primary Realtime Clock</Description><StartTime><Timestamp dt:dt=""int"">0</Timestamp><DateUtc dt:dt=""string"">2024-05-20T13:58:57Z</DateUtc></StartTime><FrequencyChanges><FrequencyChange><Frequency dt:dt=""r8"">10000000</Frequency><Timestamp dt:dt=""r8"">11519633580227</Timestamp><Current dt:dt=""r8"">0</Current><DateUtc dt:dt=""string"">2024-05-20T13:58:57Z</DateUtc></FrequencyChange></FrequencyChanges></Clock>\n",2.0.10.252,2.0.10.356,2.0.10.356,Professional,1.0.0.1
Init3,,List11,,,3548,3,0,,900,3,800,,,,,,,,,,,,,,,,,,,,,,,1,1,1,,,,,,,,,,,,,,,,,,,,,,DelayDiscountingTitrated Backup1,05-20-2024,09:58:57,5/20/2024 1:58:57 PM,2033,1,17,DelayDiscountingTitrated Backup1-2033-1,533347338,1,60.020,"<?xml version=""1.0""?>\n<Clock xmlns:dt=""urn:schemas-microsoft-com:datatypes""><Description dt:dt=""string"">E-Prime Primary Realtime Clock</Description><StartTime><Timestamp dt:dt=""int"">0</Timestamp><DateUtc dt:dt=""string"">2024-05-20T13:58:57Z</DateUtc></StartTime><FrequencyChanges><FrequencyChange><Frequency dt:dt=""r8"">10000000</Frequency><Timestamp dt:dt=""r8"">11519633580227</Timestamp><Current dt:dt=""r8"">0</Current><DateUtc dt:dt=""string"">2024-05-20T13:58:57Z</DateUtc></FrequencyChange></FrequencyChanges></Clock>\n",2.0.10.252,2.0.10.356,2.0.10.356,Professional,1.0.0.1
Proc3,,List11,,,,,,,950,3,900,900,1942,3,0,,50,,,,,,,,,,,,,,,,,2,1,2,,,,,,,,,,,,,,,,,,,,,,DelayDiscountingTitrated Backup1,05-20-2024,09:58:57,5/20/2024 1:58:57 PM,2033,1,17,DelayDiscountingTitrated Backup1-2033-1,533347338,1,60.020,"<?xml version=""1.0""?>\n<Clock xmlns:dt=""urn:schemas-microsoft-com:datatypes""><Description dt:dt=""string"">E-Prime Primary Realtime Clock</Description><StartTime><Timestamp dt:dt=""int"">0</Timestamp><DateUtc dt:dt=""string"">2024-05-20T13:58:57Z</DateUtc></StartTime><FrequencyChanges><FrequencyChange><Frequency dt:dt=""r8"">10000000</Frequency><Timestamp dt:dt=""r8"">11519633580227</Timestamp><Current dt:dt=""r8"">0</Current><DateUtc dt:dt=""string"">2024-05-20T13:58:57Z</DateUtc></FrequencyChange></FrequencyChanges></Clock>\n",2.0.10.252,2.0.10.356,2.0.10.356,Professional,1.0.0.1
Proc3,,List11,,,,,,,975,3,950,950,2935,3,0,,25,,,,,,,,,,,,,,,,,3,1,3,,,,,,,,,,,,,,,,,,,,,,DelayDiscountingTitrated Backup1,05-20-2024,09:58:57,5/20/2024 1:58:57 PM,2033,1,17,DelayDiscountingTitrated Backup1-2033-1,533347338,1,60.020,"<?xml version=""1.0""?>\n<Clock xmlns:dt=""urn:schemas-microsoft-com:datatypes""><Description dt:dt=""string"">E-Prime Primary Realtime Clock</Description><StartTime><Timestamp dt:dt=""int"">0</Timestamp><DateUtc dt:dt=""string"">2024-05-20T13:58:57Z</DateUtc></StartTime><FrequencyChanges><FrequencyChange><Frequency dt:dt=""r8"">10000000</Frequency><Timestamp dt:dt=""r8"">11519633580227</Timestamp><Current dt:dt=""r8"">0</Current><DateUtc dt:dt=""string"">2024-05-20T13:58:57Z</DateUtc></FrequencyChange></FrequencyChanges></Clock>\n",2.0.10.252,2.0.10.356,2.0.10.356,Professional,1.0.0.1
Proc3,,List11,,,,,,,987,3,975,975,1401,3,0,,12,,,,,,,,,,,,,,,,,4,1,4,,,,,,,,,,,,,,,,,,,,,,DelayDiscountingTitrated Backup1,05-20-2024,09:58:57,5/20/2024 1:58:57 PM,2033,1,17,DelayDiscountingTitrated Backup1-2033-1,533347338,1,60.020,"<?xml version=""1.0""?>\n<Clock xmlns:dt=""urn:schemas-microsoft-com:datatypes""><Description dt:dt=""string"">E-Prime Primary Realtime Clock</Description><StartTime><Timestamp dt:dt=""int"">0</Timestamp><DateUtc dt:dt=""string"">2024-05-20T13:58:57Z</DateUtc></StartTime><FrequencyChanges><FrequencyChange><Frequency dt:dt=""r8"">10000000</Frequency><Timestamp dt:dt=""r8"">11519633580227</Timestamp><Current dt:dt=""r8"">0</Current><DateUtc dt:dt=""string"">2024-05-20T13:58:57Z</DateUtc></FrequencyChange></FrequencyChanges></Clock>\n",2.0.10.252,2.0.10.356,2.0.10.356,Professional,1.0.0.1
Proc3,,List11,,,,,,,993,3,987,987,1296,3,0,,6,,,,,,,,,,,,,,,,,5,1,5,,,,,,,,,,,,,,,,,,,,,,DelayDiscountingTitrated Backup1,05-20-2024,09:58:57,5/20/2024 1:58:57 PM,2033,1,17,DelayDiscountingTitrated Backup1-2033-1,533347338,1,60.020,"<?xml version=""1.0""?>\n<Clock xmlns:dt=""urn:schemas-microsoft-com:datatypes""><Description dt:dt=""string"">E-Prime Primary Realtime Clock</Description><StartTime><Timestamp dt:dt=""int"">0</Timestamp><DateUtc dt:dt=""string"">2024-05-20T13:58:57Z</DateUtc></StartTime><FrequencyChanges><FrequencyChange><Frequency dt:dt=""r8"">10000000</Frequency><Timestamp dt:dt=""r8"">11519633580227</Timestamp><Current dt:dt=""r8"">0</Current><DateUtc dt:dt=""string"">2024-05-20T13:58:57Z</DateUtc></FrequencyChange></FrequencyChanges></Clock>\n",2.0.10.252,2.0.10.356,2.0.10.356,Professional,1.0.0.1
Proc3,,List11,,,,,,,997,3,993,993,1603,3,0,,4,,,,,,,,,,,,,,,,,6,1,6,,,,,,,,,,,,,,,,,,,,,,DelayDiscountingTitrated Backup1,05-20-2024,09:58:57,5/20/2024 1:58:57 PM,2033,1,17,DelayDiscountingTitrated Backup1-2033-1,533347338,1,60.020,"<?xml version=""1.0""?>\n<Clock xmlns:dt=""urn:schemas-microsoft-com:datatypes""><Description dt:dt=""string"">E-Prime Primary Realtime Clock</Description><StartTime><Timestamp dt:dt=""int"">0</Timestamp><DateUtc dt:dt=""string"">2024-05-20T13:58:57Z</DateUtc></StartTime><FrequencyChanges><FrequencyChange><Frequency dt:dt=""r8"">10000000</Frequency><Timestamp dt:dt=""r8"">11519633580227</Timestamp><Current dt:dt=""r8"">0</Current><DateUtc dt:dt=""string"">2024-05-20T13:58:57Z</DateUtc></FrequencyChange></FrequencyChanges></Clock>\n",2.0.10.252,2.0.10.356,2.0.10.356,Professional,1.0.0.1
Proc3,,List11,,,,,,,999,3,997,997,3529,3,0,,2,,,,,,,,,,,,,,,,,7,1,7,,,,,,,,,,,,,,,,,,,,,,DelayDiscountingTitrated Backup1,05-20-2024,09:58:57,5/20/2024 1:58:57 PM,2033,1,17,DelayDiscountingTitrated Backup1-2033-1,533347338,1,60.020,"<?xml version=""1.0""?>\n<Clock xmlns:dt=""urn:schemas-microsoft-com:datatypes""><Description dt:dt=""string"">E-Prime Primary Realtime Clock</Description><StartTime><Timestamp dt:dt=""int"">0</Timestamp><DateUtc dt:dt=""string"">2024-05-20T13:58:57Z</DateUtc></StartTime><FrequencyChanges><FrequencyChange><Frequency dt:dt=""r8"">10000000</Frequency><Timestamp dt:dt=""r8"">11519633580227</Timestamp><Current dt:dt=""r8"">0</Current><DateUtc dt:dt=""string"">2024-05-20T13:58:57Z</DateUtc></FrequencyChange></FrequencyChanges></Clock>\n",2.0.10.252,2.0.10.356,2.0.10.356,Professional,1.0.0.1
Proc3,,List11,,,,,,,999,3,,999,2011,3,0,,,,,,,,,,,,,,,,,,,8,1,8,,,,,,,,,,,,,,,,,,,,,,DelayDiscountingTitrated Backup1,05-20-2024,09:58:57,5/20/2024 1:58:57 PM,2033,1,17,DelayDiscountingTitrated Backup1-2033-1,533347338,1,60.020,"<?xml version=""1.0""?>\n<Clock xmlns:dt=""urn:schemas-microsoft-com:datatypes""><Description dt:dt=""string"">E-Prime Primary Realtime Clock</Description><StartTime><Timestamp dt:dt=""int"">0</Timestamp><DateUtc dt:dt=""string"">2024-05-20T13:58:57Z</DateUtc></StartTime><FrequencyChanges><FrequencyChange><Frequency dt:dt=""r8"">10000000</Frequency><Timestamp dt:dt=""r8"">11519633580227</Timestamp><Current dt:dt=""r8"">0</Current><DateUtc dt:dt=""string"">2024-05-20T13:58:57Z</DateUtc></FrequencyChange></FrequencyChanges></Clock>\n",2.0.10.252,2.0.10.356,2.0.10.356,Professional,1.0.0.1
discount3,,List6,,,,,,,,,,,,,,,,800,1 year,365,,,,,,,,,,,,,,,,,3,1,1,,,,,,,,,,,,,,,,,,,DelayDiscountingTitrated Backup1,05-20-2024,09:58:57,5/20/2024 1:58:57 PM,2033,1,17,DelayDiscountingTitrated Backup1-2033-1,533347338,1,60.020,"<?xml version=""1.0""?>\n<Clock xmlns:dt=""urn:schemas-microsoft-com:datatypes""><Description dt:dt=""string"">E-Prime Primary Realtime Clock</Description><StartTime><Timestamp dt:dt=""int"">0</Timestamp><DateUtc dt:dt=""string"">2024-05-20T13:58:57Z</DateUtc></StartTime><FrequencyChanges><FrequencyChange><Frequency dt:dt=""r8"">10000000</Frequency><Timestamp dt:dt=""r8"">11519633580227</Timestamp><Current dt:dt=""r8"">0</Current><DateUtc dt:dt=""string"">2024-05-20T13:58:57Z</DateUtc></FrequencyChange></FrequencyChanges></Clock>\n",2.0.10.252,2.0.10.356,2.0.10.356,Professional,1.0.0.1
oneyearproc,,List1,,,,,,,,,,,,,,,,,,,,,,4,1,3,3,,,,,,,,,,,,,,,,,,,,,,,,,,,,,,,DelayDiscountingTitrated Backup1,05-20-2024,09:58:57,5/20/2024 1:58:57 PM,2033,1,17,DelayDiscountingTitrated Backup1-2033-1,533347338,1,60.020,"<?xml version=""1.0""?>\n<Clock xmlns:dt=""urn:schemas-microsoft-com:datatypes""><Description dt:dt=""string"">E-Prime Primary Realtime Clock</Description><StartTime><Timestamp dt:dt=""int"">0</Timestamp><DateUtc dt:dt=""string"">2024-05-20T13:58:57Z</DateUtc></StartTime><FrequencyChanges><FrequencyChange><Frequency dt:dt=""r8"">10000000</Frequency><Timestamp dt:dt=""r8"">11519633580227</Timestamp><Current dt:dt=""r8"">0</Current><DateUtc dt:dt=""string"">2024-05-20T13:58:57Z</DateUtc></FrequencyChange></FrequencyChanges></Clock>\n",2.0.10.252,2.0.10.356,2.0.10.356,Professional,1.0.0.1
Init4,,List12,,,16146,3,0,,750,3,500,,,,,,,,,,,,,,,,,,,,,,,,,,,,,1,1,1,,,,,,,,,,,,,,,,DelayDiscountingTitrated Backup1,05-20-2024,09:58:57,5/20/2024 1:58:57 PM,2033,1,17,DelayDiscountingTitrated Backup1-2033-1,533347338,1,60.020,"<?xml version=""1.0""?>\n<Clock xmlns:dt=""urn:schemas-microsoft-com:datatypes""><Description dt:dt=""string"">E-Prime Primary Realtime Clock</Description><StartTime><Timestamp dt:dt=""int"">0</Timestamp><DateUtc dt:dt=""string"">2024-05-20T13:58:57Z</DateUtc></StartTime><FrequencyChanges><FrequencyChange><Frequency dt:dt=""r8"">10000000</Frequency><Timestamp dt:dt=""r8"">11519633580227</Timestamp><Current dt:dt=""r8"">0</Current><DateUtc dt:dt=""string"">2024-05-20T13:58:57Z</DateUtc></FrequencyChange></FrequencyChanges></Clock>\n",2.0.10.252,2.0.10.356,2.0.10.356,Professional,1.0.0.1
Proc4,,List12,,,,,,,875,3,750,750,4535,3,0,,125,,,,,,,,,,,,,,,,,,,,,,,2,1,2,,,,,,,,,,,,,,,,DelayDiscountingTitrated Backup1,05-20-2024,09:58:57,5/20/2024 1:58:57 PM,2033,1,17,DelayDiscountingTitrated Backup1-2033-1,533347338,1,60.020,"<?xml version=""1.0""?>\n<Clock xmlns:dt=""urn:schemas-microsoft-com:datatypes""><Description dt:dt=""string"">E-Prime Primary Realtime Clock</Description><StartTime><Timestamp dt:dt=""int"">0</Timestamp><DateUtc dt:dt=""string"">2024-05-20T13:58:57Z</DateUtc></StartTime><FrequencyChanges><FrequencyChange><Frequency dt:dt=""r8"">10000000</Frequency><Timestamp dt:dt=""r8"">11519633580227</Timestamp><Current dt:dt=""r8"">0</Current><DateUtc dt:dt=""string"">2024-05-20T13:58:57Z</DateUtc></FrequencyChange></FrequencyChanges></Clock>\n",2.0.10.252,2.0.10.356,2.0.10.356,Professional,1.0.0.1
Proc4,,List12,,,,,,,937,3,875,875,3026,3,0,,62,,,,,,,,,,,,,,,,,,,,,,,3,1,3,,,,,,,,,,,,,,,,DelayDiscountingTitrated Backup1,05-20-2024,09:58:57,5/20/2024 1:58:57 PM,2033,1,17,DelayDiscountingTitrated Backup1-2033-1,533347338,1,60.020,"<?xml version=""1.0""?>\n<Clock xmlns:dt=""urn:schemas-microsoft-com:datatypes""><Description dt:dt=""string"">E-Prime Primary Realtime Clock</Description><StartTime><Timestamp dt:dt=""int"">0</Timestamp><DateUtc dt:dt=""string"">2024-05-20T13:58:57Z</DateUtc></StartTime><FrequencyChanges><FrequencyChange><Frequency dt:dt=""r8"">10000000</Frequency><Timestamp dt:dt=""r8"">11519633580227</Timestamp><Current dt:dt=""r8"">0</Current><DateUtc dt:dt=""string"">2024-05-20T13:58:57Z</DateUtc></FrequencyChange></FrequencyChanges></Clock>\n",2.0.10.252,2.0.10.356,2.0.10.356,Professional,1.0.0.1
Proc4,,List12,,,,,,,906,1,937,937,5016,1,0,,31,,,,,,,,,,,,,,,,,,,,,,,4,1,4,,,,,,,,,,,,,,,,DelayDiscountingTitrated Backup1,05-20-2024,09:58:57,5/20/2024 1:58:57 PM,2033,1,17,DelayDiscountingTitrated Backup1-2033-1,533347338,1,60.020,"<?xml version=""1.0""?>\n<Clock xmlns:dt=""urn:schemas-microsoft-com:datatypes""><Description dt:dt=""string"">E-Prime Primary Realtime Clock</Description><StartTime><Timestamp dt:dt=""int"">0</Timestamp><DateUtc dt:dt=""string"">2024-05-20T13:58:57Z</DateUtc></StartTime><FrequencyChanges><FrequencyChange><Frequency dt:dt=""r8"">10000000</Frequency><Timestamp dt:dt=""r8"">11519633580227</Timestamp><Current dt:dt=""r8"">0</Current><DateUtc dt:dt=""string"">2024-05-20T13:58:57Z</DateUtc></FrequencyChange></FrequencyChanges></Clock>\n",2.0.10.252,2.0.10.356,2.0.10.356,Professional,1.0.0.1
Proc4,,List12,,,,,,,890,1,906,906,1087,1,0,,16,,,,,,,,,,,,,,,,,,,,,,,5,1,5,,,,,,,,,,,,,,,,DelayDiscountingTitrated Backup1,05-20-2024,09:58:57,5/20/2024 1:58:57 PM,2033,1,17,DelayDiscountingTitrated Backup1-2033-1,533347338,1,60.020,"<?xml version=""1.0""?>\n<Clock xmlns:dt=""urn:schemas-microsoft-com:datatypes""><Description dt:dt=""string"">E-Prime Primary Realtime Clock</Description><StartTime><Timestamp dt:dt=""int"">0</Timestamp><DateUtc dt:dt=""string"">2024-05-20T13:58:57Z</DateUtc></StartTime><FrequencyChanges><FrequencyChange><Frequency dt:dt=""r8"">10000000</Frequency><Timestamp dt:dt=""r8"">11519633580227</Timestamp><Current dt:dt=""r8"">0</Current><DateUtc dt:dt=""string"">2024-05-20T13:58:57Z</DateUtc></FrequencyChange></FrequencyChanges></Clock>\n",2.0.10.252,2.0.10.356,2.0.10.356,Professional,1.0.0.1
Proc4,,List12,,,,,,,898,3,890,890,947,3,0,,8,,,,,,,,,,,,,,,,,,,,,,,6,1,6,,,,,,,,,,,,,,,,DelayDiscountingTitrated Backup1,05-20-2024,09:58:57,5/20/2024 1:58:57 PM,2033,1,17,DelayDiscountingTitrated Backup1-2033-1,533347338,1,60.020,"<?xml version=""1.0""?>\n<Clock xmlns:dt=""urn:schemas-microsoft-com:datatypes""><Description dt:dt=""string"">E-Prime Primary Realtime Clock</Description><StartTime><Timestamp dt:dt=""int"">0</Timestamp><DateUtc dt:dt=""string"">2024-05-20T13:58:57Z</DateUtc></StartTime><FrequencyChanges><FrequencyChange><Frequency dt:dt=""r8"">10000000</Frequency><Timestamp dt:dt=""r8"">11519633580227</Timestamp><Current dt:dt=""r8"">0</Current><DateUtc dt:dt=""string"">2024-05-20T13:58:57Z</DateUtc></FrequencyChange></FrequencyChanges></Clock>\n",2.0.10.252,2.0.10.356,2.0.10.356,Professional,1.0.0.1
Proc4,,List12,,,,,,,902,3,898,898,1435,3,0,,4,,,,,,,,,,,,,,,,,,,,,,,7,1,7,,,,,,,,,,,,,,,,DelayDiscountingTitrated Backup1,05-20-2024,09:58:57,5/20/2024 1:58:57 PM,2033,1,17,DelayDiscountingTitrated Backup1-2033-1,533347338,1,60.020,"<?xml version=""1.0""?>\n<Clock xmlns:dt=""urn:schemas-microsoft-com:datatypes""><Description dt:dt=""string"">E-Prime Primary Realtime Clock</Description><StartTime><Timestamp dt:dt=""int"">0</Timestamp><DateUtc dt:dt=""string"">2024-05-20T13:58:57Z</DateUtc></StartTime><FrequencyChanges><FrequencyChange><Frequency dt:dt=""r8"">10000000</Frequency><Timestamp dt:dt=""r8"">11519633580227</Timestamp><Current dt:dt=""r8"">0</Current><DateUtc dt:dt=""string"">2024-05-20T13:58:57Z</DateUtc></FrequencyChange></FrequencyChanges></Clock>\n",2.0.10.252,2.0.10.356,2.0.10.356,Professional,1.0.0.1
Proc4,,List12,,,,,,,900,1,902,902,3057,1,0,,2,,,,,,,,,,,,,,,,,,,,,,,8,1,8,,,,,,,,,,,,,,,,DelayDiscountingTitrated Backup1,05-20-2024,09:58:57,5/20/2024 1:58:57 PM,2033,1,17,DelayDiscountingTitrated Backup1-2033-1,533347338,1,60.020,"<?xml version=""1.0""?>\n<Clock xmlns:dt=""urn:schemas-microsoft-com:datatypes""><Description dt:dt=""string"">E-Prime Primary Realtime Clock</Description><StartTime><Timestamp dt:dt=""int"">0</Timestamp><DateUtc dt:dt=""string"">2024-05-20T13:58:57Z</DateUtc></StartTime><FrequencyChanges><FrequencyChange><Frequency dt:dt=""r8"">10000000</Frequency><Timestamp dt:dt=""r8"">11519633580227</Timestamp><Current dt:dt=""r8"">0</Current><DateUtc dt:dt=""string"">2024-05-20T13:58:57Z</DateUtc></FrequencyChange></FrequencyChanges></Clock>\n",2.0.10.252,2.0.10.356,2.0.10.356,Professional,1.0.0.1
Proc4,,List12,,,,,,,901,3,900,900,1846,3,0,,1,,,,,,,,,,,,,,,,,,,,,,,9,1,9,,,,,,,,,,,,,,,,DelayDiscountingTitrated Backup1,05-20-2024,09:58:57,5/20/2024 1:58:57 PM,2033,1,17,DelayDiscountingTitrated Backup1-2033-1,533347338,1,60.020,"<?xml version=""1.0""?>\n<Clock xmlns:dt=""urn:schemas-microsoft-com:datatypes""><Description dt:dt=""string"">E-Prime Primary Realtime Clock</Description><StartTime><Timestamp dt:dt=""int"">0</Timestamp><DateUtc dt:dt=""string"">2024-05-20T13:58:57Z</DateUtc></StartTime><FrequencyChanges><FrequencyChange><Frequency dt:dt=""r8"">10000000</Frequency><Timestamp dt:dt=""r8"">11519633580227</Timestamp><Current dt:dt=""r8"">0</Current><DateUtc dt:dt=""string"">2024-05-20T13:58:57Z</DateUtc></FrequencyChange></FrequencyChanges></Clock>\n",2.0.10.252,2.0.10.356,2.0.10.356,Professional,1.0.0.1
Proc4,,List12,,,,,,,901,1,900,901,2011,1,0,,,,,,,,,,,,,,,,,,,,,,,,,10,1,10,,,,,,,,,,,,,,,,DelayDiscountingTitrated Backup1,05-20-2024,09:58:57,5/20/2024 1:58:57 PM,2033,1,17,DelayDiscountingTitrated Backup1-2033-1,533347338,1,60.020,"<?xml version=""1.0""?>\n<Clock xmlns:dt=""urn:schemas-microsoft-com:datatypes""><Description dt:dt=""string"">E-Prime Primary Realtime Clock</Description><StartTime><Timestamp dt:dt=""int"">0</Timestamp><DateUtc dt:dt=""string"">2024-05-20T13:58:57Z</DateUtc></StartTime><FrequencyChanges><FrequencyChange><Frequency dt:dt=""r8"">10000000</Frequency><Timestamp dt:dt=""r8"">11519633580227</Timestamp><Current dt:dt=""r8"">0</Current><DateUtc dt:dt=""string"">2024-05-20T13:58:57Z</DateUtc></FrequencyChange></FrequencyChanges></Clock>\n",2.0.10.252,2.0.10.356,2.0.10.356,Professional,1.0.0.1
discount4,,List7,,,,,,,,,,,,,,,,500,5 years,1825,,,,,,,,,,,,,,,,,,,,,,,2,1,1,,,,,,,,,,,,,DelayDiscountingTitrated Backup1,05-20-2024,09:58:57,5/20/2024 1:58:57 PM,2033,1,17,DelayDiscountingTitrated Backup1-2033-1,533347338,1,60.020,"<?xml version=""1.0""?>\n<Clock xmlns:dt=""urn:schemas-microsoft-com:datatypes""><Description dt:dt=""string"">E-Prime Primary Realtime Clock</Description><StartTime><Timestamp dt:dt=""int"">0</Timestamp><DateUtc dt:dt=""string"">2024-05-20T13:58:57Z</DateUtc></StartTime><FrequencyChanges><FrequencyChange><Frequency dt:dt=""r8"">10000000</Frequency><Timestamp dt:dt=""r8"">11519633580227</Timestamp><Current dt:dt=""r8"">0</Current><DateUtc dt:dt=""string"">2024-05-20T13:58:57Z</DateUtc></FrequencyChange></FrequencyChanges></Clock>\n",2.0.10.252,2.0.10.356,2.0.10.356,Professional,1.0.0.1
fiveyearproc,,List1,,,,,,,,,,,,,,,,,,,,,,5,1,4,4,,,,,,,,,,,,,,,,,,,,,,,,,,,,,,,DelayDiscountingTitrated Backup1,05-20-2024,09:58:57,5/20/2024 1:58:57 PM,2033,1,17,DelayDiscountingTitrated Backup1-2033-1,533347338,1,60.020,"<?xml version=""1.0""?>\n<Clock xmlns:dt=""urn:schemas-microsoft-com:datatypes""><Description dt:dt=""string"">E-Prime Primary Realtime Clock</Description><StartTime><Timestamp dt:dt=""int"">0</Timestamp><DateUtc dt:dt=""string"">2024-05-20T13:58:57Z</DateUtc></StartTime><FrequencyChanges><FrequencyChange><Frequency dt:dt=""r8"">10000000</Frequency><Timestamp dt:dt=""r8"">11519633580227</Timestamp><Current dt:dt=""r8"">0</Current><DateUtc dt:dt=""string"">2024-05-20T13:58:57Z</DateUtc></FrequencyChange></FrequencyChanges></Clock>\n",2.0.10.252,2.0.10.356,2.0.10.356,Professional,1.0.0.1
Init1,,List9,,,3933,3,0,,600,3,200,,,,,,,,,,,,,,,,,,,,,,,,,,,,,,,,,,,1,1,1,,,,,,,,,,DelayDiscountingTitrated Backup1,05-20-2024,09:58:57,5/20/2024 1:58:57 PM,2033,1,17,DelayDiscountingTitrated Backup1-2033-1,533347338,1,60.020,"<?xml version=""1.0""?>\n<Clock xmlns:dt=""urn:schemas-microsoft-com:datatypes""><Description dt:dt=""string"">E-Prime Primary Realtime Clock</Description><StartTime><Timestamp dt:dt=""int"">0</Timestamp><DateUtc dt:dt=""string"">2024-05-20T13:58:57Z</DateUtc></StartTime><FrequencyChanges><FrequencyChange><Frequency dt:dt=""r8"">10000000</Frequency><Timestamp dt:dt=""r8"">11519633580227</Timestamp><Current dt:dt=""r8"">0</Current><DateUtc dt:dt=""string"">2024-05-20T13:58:57Z</DateUtc></FrequencyChange></FrequencyChanges></Clock>\n",2.0.10.252,2.0.10.356,2.0.10.356,Professional,1.0.0.1
Proc1,,List9,,,,,,,800,3,600,600,1271,3,0,,200,,,,,,,,,,,,,,,,,,,,,,,,,,,,,2,1,2,,,,,,,,,,DelayDiscountingTitrated Backup1,05-20-2024,09:58:57,5/20/2024 1:58:57 PM,2033,1,17,DelayDiscountingTitrated Backup1-2033-1,533347338,1,60.020,"<?xml version=""1.0""?>\n<Clock xmlns:dt=""urn:schemas-microsoft-com:datatypes""><Description dt:dt=""string"">E-Prime Primary Realtime Clock</Description><StartTime><Timestamp dt:dt=""int"">0</Timestamp><DateUtc dt:dt=""string"">2024-05-20T13:58:57Z</DateUtc></StartTime><FrequencyChanges><FrequencyChange><Frequency dt:dt=""r8"">10000000</Frequency><Timestamp dt:dt=""r8"">11519633580227</Timestamp><Current dt:dt=""r8"">0</Current><DateUtc dt:dt=""string"">2024-05-20T13:58:57Z</DateUtc></FrequencyChange></FrequencyChanges></Clock>\n",2.0.10.252,2.0.10.356,2.0.10.356,Professional,1.0.0.1
Proc1,,List9,,,,,,,900,3,800,800,1235,3,0,,100,,,,,,,,,,,,,,,,,,,,,,,,,,,,,3,1,3,,,,,,,,,,DelayDiscountingTitrated Backup1,05-20-2024,09:58:57,5/20/2024 1:58:57 PM,2033,1,17,DelayDiscountingTitrated Backup1-2033-1,533347338,1,60.020,"<?xml version=""1.0""?>\n<Clock xmlns:dt=""urn:schemas-microsoft-com:datatypes""><Description dt:dt=""string"">E-Prime Primary Realtime Clock</Description><StartTime><Timestamp dt:dt=""int"">0</Timestamp><DateUtc dt:dt=""string"">2024-05-20T13:58:57Z</DateUtc></StartTime><FrequencyChanges><FrequencyChange><Frequency dt:dt=""r8"">10000000</Frequency><Timestamp dt:dt=""r8"">11519633580227</Timestamp><Current dt:dt=""r8"">0</Current><DateUtc dt:dt=""string"">2024-05-20T13:58:57Z</DateUtc></FrequencyChange></FrequencyChanges></Clock>\n",2.0.10.252,2.0.10.356,2.0.10.356,Professional,1.0.0.1
Proc1,,List9,,,,,,,850,1,900,900,976,1,0,,50,,,,,,,,,,,,,,,,,,,,,,,,,,,,,4,1,4,,,,,,,,,,DelayDiscountingTitrated Backup1,05-20-2024,09:58:57,5/20/2024 1:58:57 PM,2033,1,17,DelayDiscountingTitrated Backup1-2033-1,533347338,1,60.020,"<?xml version=""1.0""?>\n<Clock xmlns:dt=""urn:schemas-microsoft-com:datatypes""><Description dt:dt=""string"">E-Prime Primary Realtime Clock</Description><StartTime><Timestamp dt:dt=""int"">0</Timestamp><DateUtc dt:dt=""string"">2024-05-20T13:58:57Z</DateUtc></StartTime><FrequencyChanges><FrequencyChange><Frequency dt:dt=""r8"">10000000</Frequency><Timestamp dt:dt=""r8"">11519633580227</Timestamp><Current dt:dt=""r8"">0</Current><DateUtc dt:dt=""string"">2024-05-20T13:58:57Z</DateUtc></FrequencyChange></FrequencyChanges></Clock>\n",2.0.10.252,2.0.10.356,2.0.10.356,Professional,1.0.0.1
Proc1,,List9,,,,,,,875,3,850,850,1344,3,0,,25,,,,,,,,,,,,,,,,,,,,,,,,,,,,,5,1,5,,,,,,,,,,DelayDiscountingTitrated Backup1,05-20-2024,09:58:57,5/20/2024 1:58:57 PM,2033,1,17,DelayDiscountingTitrated Backup1-2033-1,533347338,1,60.020,"<?xml version=""1.0""?>\n<Clock xmlns:dt=""urn:schemas-microsoft-com:datatypes""><Description dt:dt=""string"">E-Prime Primary Realtime Clock</Description><StartTime><Timestamp dt:dt=""int"">0</Timestamp><DateUtc dt:dt=""string"">2024-05-20T13:58:57Z</DateUtc></StartTime><FrequencyChanges><FrequencyChange><Frequency dt:dt=""r8"">10000000</Frequency><Timestamp dt:dt=""r8"">11519633580227</Timestamp><Current dt:dt=""r8"">0</Current><DateUtc dt:dt=""string"">2024-05-20T13:58:57Z</DateUtc></FrequencyChange></FrequencyChanges></Clock>\n",2.0.10.252,2.0.10.356,2.0.10.356,Professional,1.0.0.1
Proc1,,List9,,,,,,,887,3,875,875,1193,3,0,,12,,,,,,,,,,,,,,,,,,,,,,,,,,,,,6,1,6,,,,,,,,,,DelayDiscountingTitrated Backup1,05-20-2024,09:58:57,5/20/2024 1:58:57 PM,2033,1,17,DelayDiscountingTitrated Backup1-2033-1,533347338,1,60.020,"<?xml version=""1.0""?>\n<Clock xmlns:dt=""urn:schemas-microsoft-com:datatypes""><Description dt:dt=""string"">E-Prime Primary Realtime Clock</Description><StartTime><Timestamp dt:dt=""int"">0</Timestamp><DateUtc dt:dt=""string"">2024-05-20T13:58:57Z</DateUtc></StartTime><FrequencyChanges><FrequencyChange><Frequency dt:dt=""r8"">10000000</Frequency><Timestamp dt:dt=""r8"">11519633580227</Timestamp><Current dt:dt=""r8"">0</Current><DateUtc dt:dt=""string"">2024-05-20T13:58:57Z</DateUtc></FrequencyChange></FrequencyChanges></Clock>\n",2.0.10.252,2.0.10.356,2.0.10.356,Professional,1.0.0.1
Proc1,,List9,,,,,,,893,3,887,887,1080,3,0,,6,,,,,,,,,,,,,,,,,,,,,,,,,,,,,7,1,7,,,,,,,,,,DelayDiscountingTitrated Backup1,05-20-2024,09:58:57,5/20/2024 1:58:57 PM,2033,1,17,DelayDiscountingTitrated Backup1-2033-1,533347338,1,60.020,"<?xml version=""1.0""?>\n<Clock xmlns:dt=""urn:schemas-microsoft-com:datatypes""><Description dt:dt=""string"">E-Prime Primary Realtime Clock</Description><StartTime><Timestamp dt:dt=""int"">0</Timestamp><DateUtc dt:dt=""string"">2024-05-20T13:58:57Z</DateUtc></StartTime><FrequencyChanges><FrequencyChange><Frequency dt:dt=""r8"">10000000</Frequency><Timestamp dt:dt=""r8"">11519633580227</Timestamp><Current dt:dt=""r8"">0</Current><DateUtc dt:dt=""string"">2024-05-20T13:58:57Z</DateUtc></FrequencyChange></FrequencyChanges></Clock>\n",2.0.10.252,2.0.10.356,2.0.10.356,Professional,1.0.0.1
Proc1,,List9,,,,,,,896,3,893,893,2355,3,0,,3,,,,,,,,,,,,,,,,,,,,,,,,,,,,,8,1,8,,,,,,,,,,DelayDiscountingTitrated Backup1,05-20-2024,09:58:57,5/20/2024 1:58:57 PM,2033,1,17,DelayDiscountingTitrated Backup1-2033-1,533347338,1,60.020,"<?xml version=""1.0""?>\n<Clock xmlns:dt=""urn:schemas-microsoft-com:datatypes""><Description dt:dt=""string"">E-Prime Primary Realtime Clock</Description><StartTime><Timestamp dt:dt=""int"">0</Timestamp><DateUtc dt:dt=""string"">2024-05-20T13:58:57Z</DateUtc></StartTime><FrequencyChanges><FrequencyChange><Frequency dt:dt=""r8"">10000000</Frequency><Timestamp dt:dt=""r8"">11519633580227</Timestamp><Current dt:dt=""r8"">0</Current><DateUtc dt:dt=""string"">2024-05-20T13:58:57Z</DateUtc></FrequencyChange></FrequencyChanges></Clock>\n",2.0.10.252,2.0.10.356,2.0.10.356,Professional,1.0.0.1
Proc1,,List9,,,,,,,898,3,896,896,1732,3,0,,2,,,,,,,,,,,,,,,,,,,,,,,,,,,,,9,1,9,,,,,,,,,,DelayDiscountingTitrated Backup1,05-20-2024,09:58:57,5/20/2024 1:58:57 PM,2033,1,17,DelayDiscountingTitrated Backup1-2033-1,533347338,1,60.020,"<?xml version=""1.0""?>\n<Clock xmlns:dt=""urn:schemas-microsoft-com:datatypes""><Description dt:dt=""string"">E-Prime Primary Realtime Clock</Description><StartTime><Timestamp dt:dt=""int"">0</Timestamp><DateUtc dt:dt=""string"">2024-05-20T13:58:57Z</DateUtc></StartTime><FrequencyChanges><FrequencyChange><Frequency dt:dt=""r8"">10000000</Frequency><Timestamp dt:dt=""r8"">11519633580227</Timestamp><Current dt:dt=""r8"">0</Current><DateUtc dt:dt=""string"">2024-05-20T13:58:57Z</DateUtc></FrequencyChange></FrequencyChanges></Clock>\n",2.0.10.252,2.0.10.356,2.0.10.356,Professional,1.0.0.1
Proc1,,List9,,,,,,,899,3,898,898,1174,3,0,,1,,,,,,,,,,,,,,,,,,,,,,,,,,,,,10,1,10,,,,,,,,,,DelayDiscountingTitrated Backup1,05-20-2024,09:58:57,5/20/2024 1:58:57 PM,2033,1,17,DelayDiscountingTitrated Backup1-2033-1,533347338,1,60.020,"<?xml version=""1.0""?>\n<Clock xmlns:dt=""urn:schemas-microsoft-com:datatypes""><Description dt:dt=""string"">E-Prime Primary Realtime Clock</Description><StartTime><Timestamp dt:dt=""int"">0</Timestamp><DateUtc dt:dt=""string"">2024-05-20T13:58:57Z</DateUtc></StartTime><FrequencyChanges><FrequencyChange><Frequency dt:dt=""r8"">10000000</Frequency><Timestamp dt:dt=""r8"">11519633580227</Timestamp><Current dt:dt=""r8"">0</Current><DateUtc dt:dt=""string"">2024-05-20T13:58:57Z</DateUtc></FrequencyChange></FrequencyChanges></Clock>\n",2.0.10.252,2.0.10.356,2.0.10.356,Professional,1.0.0.1
Proc1,,List9,,,,,,,899,3,898,899,2166,3,0,,,,,,,,,,,,,,,,,,,,,,,,,,,,,,,11,1,11,,,,,,,,,,DelayDiscountingTitrated Backup1,05-20-2024,09:58:57,5/20/2024 1:58:57 PM,2033,1,17,DelayDiscountingTitrated Backup1-2033-1,533347338,1,60.020,"<?xml version=""1.0""?>\n<Clock xmlns:dt=""urn:schemas-microsoft-com:datatypes""><Description dt:dt=""string"">E-Prime Primary Realtime Clock</Description><StartTime><Timestamp dt:dt=""int"">0</Timestamp><DateUtc dt:dt=""string"">2024-05-20T13:58:57Z</DateUtc></StartTime><FrequencyChanges><FrequencyChange><Frequency dt:dt=""r8"">10000000</Frequency><Timestamp dt:dt=""r8"">11519633580227</Timestamp><Current dt:dt=""r8"">0</Current><DateUtc dt:dt=""string"">2024-05-20T13:58:57Z</DateUtc></FrequencyChange></FrequencyChanges></Clock>\n",2.0.10.252,2.0.10.356,2.0.10.356,Professional,1.0.0.1
discount1,,List4,,,,,,,,,,,,,,,,200,1 month,30,,,,,,,,,,,,,,,,,,,,,,,,,,,,,1,1,1,,,,,,,DelayDiscountingTitrated Backup1,05-20-2024,09:58:57,5/20/2024 1:58:57 PM,2033,1,17,DelayDiscountingTitrated Backup1-2033-1,533347338,1,60.020,"<?xml version=""1.0""?>\n<Clock xmlns:dt=""urn:schemas-microsoft-com:datatypes""><Description dt:dt=""string"">E-Prime Primary Realtime Clock</Description><StartTime><Timestamp dt:dt=""int"">0</Timestamp><DateUtc dt:dt=""string"">2024-05-20T13:58:57Z</DateUtc></StartTime><FrequencyChanges><FrequencyChange><Frequency dt:dt=""r8"">10000000</Frequency><Timestamp dt:dt=""r8"">11519633580227</Timestamp><Current dt:dt=""r8"">0</Current><DateUtc dt:dt=""string"">2024-05-20T13:58:57Z</DateUtc></FrequencyChange></FrequencyChanges></Clock>\n",2.0.10.252,2.0.10.356,2.0.10.356,Professional,1.0.0.1
onemthproc,,List1,,,,,,,,,,,,,,,,,,,,,,2,1,5,5,,,,,,,,,,,,,,,,,,,,,,,,,,,,,,,DelayDiscountingTitrated Backup1,05-20-2024,09:58:57,5/20/2024 1:58:57 PM,2033,1,17,DelayDiscountingTitrated Backup1-2033-1,533347338,1,60.020,"<?xml version=""1.0""?>\n<Clock xmlns:dt=""urn:schemas-microsoft-com:datatypes""><Description dt:dt=""string"">E-Prime Primary Realtime Clock</Description><StartTime><Timestamp dt:dt=""int"">0</Timestamp><DateUtc dt:dt=""string"">2024-05-20T13:58:57Z</DateUtc></StartTime><FrequencyChanges><FrequencyChange><Frequency dt:dt=""r8"">10000000</Frequency><Timestamp dt:dt=""r8"">11519633580227</Timestamp><Current dt:dt=""r8"">0</Current><DateUtc dt:dt=""string"">2024-05-20T13:58:57Z</DateUtc></FrequencyChange></FrequencyChanges></Clock>\n",2.0.10.252,2.0.10.356,2.0.10.356,Professional,1.0.0.1
TrialProcInit,,List2,,,3137,3,0,,600,3,200,,,,,,,,,,,,,,,,,,,,,,,,,,,,,,,,,,,,,,,,,1,1,1,,,,DelayDiscountingTitrated Backup1,05-20-2024,09:58:57,5/20/2024 1:58:57 PM,2033,1,17,DelayDiscountingTitrated Backup1-2033-1,533347338,1,60.020,"<?xml version=""1.0""?>\n<Clock xmlns:dt=""urn:schemas-microsoft-com:datatypes""><Description dt:dt=""string"">E-Prime Primary Realtime Clock</Description><StartTime><Timestamp dt:dt=""int"">0</Timestamp><DateUtc dt:dt=""string"">2024-05-20T13:58:57Z</DateUtc></StartTime><FrequencyChanges><FrequencyChange><Frequency dt:dt=""r8"">10000000</Frequency><Timestamp dt:dt=""r8"">11519633580227</Timestamp><Current dt:dt=""r8"">0</Current><DateUtc dt:dt=""string"">2024-05-20T13:58:57Z</DateUtc></FrequencyChange></FrequencyChanges></Clock>\n",2.0.10.252,2.0.10.356,2.0.10.356,Professional,1.0.0.1
TrialProc,,List2,,,,,,,800,3,600,600,1787,3,0,,200,,,,,,,,,,,,,,,,,,,,,,,,,,,,,,,,,,,2,1,2,,,,DelayDiscountingTitrated Backup1,05-20-2024,09:58:57,5/20/2024 1:58:57 PM,2033,1,17,DelayDiscountingTitrated Backup1-2033-1,533347338,1,60.020,"<?xml version=""1.0""?>\n<Clock xmlns:dt=""urn:schemas-microsoft-com:datatypes""><Description dt:dt=""string"">E-Prime Primary Realtime Clock</Description><StartTime><Timestamp dt:dt=""int"">0</Timestamp><DateUtc dt:dt=""string"">2024-05-20T13:58:57Z</DateUtc></StartTime><FrequencyChanges><FrequencyChange><Frequency dt:dt=""r8"">10000000</Frequency><Timestamp dt:dt=""r8"">11519633580227</Timestamp><Current dt:dt=""r8"">0</Current><DateUtc dt:dt=""string"">2024-05-20T13:58:57Z</DateUtc></FrequencyChange></FrequencyChanges></Clock>\n",2.0.10.252,2.0.10.356,2.0.10.356,Professional,1.0.0.1
TrialProc,,List2,,,,,,,900,3,800,800,1210,3,0,,100,,,,,,,,,,,,,,,,,,,,,,,,,,,,,,,,,,,3,1,3,,,,DelayDiscountingTitrated Backup1,05-20-2024,09:58:57,5/20/2024 1:58:57 PM,2033,1,17,DelayDiscountingTitrated Backup1-2033-1,533347338,1,60.020,"<?xml version=""1.0""?>\n<Clock xmlns:dt=""urn:schemas-microsoft-com:datatypes""><Description dt:dt=""string"">E-Prime Primary Realtime Clock</Description><StartTime><Timestamp dt:dt=""int"">0</Timestamp><DateUtc dt:dt=""string"">2024-05-20T13:58:57Z</DateUtc></StartTime><FrequencyChanges><FrequencyChange><Frequency dt:dt=""r8"">10000000</Frequency><Timestamp dt:dt=""r8"">11519633580227</Timestamp><Current dt:dt=""r8"">0</Current><DateUtc dt:dt=""string"">2024-05-20T13:58:57Z</DateUtc></FrequencyChange></FrequencyChanges></Clock>\n",2.0.10.252,2.0.10.356,2.0.10.356,Professional,1.0.0.1
TrialProc,,List2,,,,,,,850,1,900,900,1552,1,0,,50,,,,,,,,,,,,,,,,,,,,,,,,,,,,,,,,,,,4,1,4,,,,DelayDiscountingTitrated Backup1,05-20-2024,09:58:57,5/20/2024 1:58:57 PM,2033,1,17,DelayDiscountingTitrated Backup1-2033-1,533347338,1,60.020,"<?xml version=""1.0""?>\n<Clock xmlns:dt=""urn:schemas-microsoft-com:datatypes""><Description dt:dt=""string"">E-Prime Primary Realtime Clock</Description><StartTime><Timestamp dt:dt=""int"">0</Timestamp><DateUtc dt:dt=""string"">2024-05-20T13:58:57Z</DateUtc></StartTime><FrequencyChanges><FrequencyChange><Frequency dt:dt=""r8"">10000000</Frequency><Timestamp dt:dt=""r8"">11519633580227</Timestamp><Current dt:dt=""r8"">0</Current><DateUtc dt:dt=""string"">2024-05-20T13:58:57Z</DateUtc></FrequencyChange></FrequencyChanges></Clock>\n",2.0.10.252,2.0.10.356,2.0.10.356,Professional,1.0.0.1
TrialProc,,List2,,,,,,,875,3,850,850,1033,3,0,,25,,,,,,,,,,,,,,,,,,,,,,,,,,,,,,,,,,,5,1,5,,,,DelayDiscountingTitrated Backup1,05-20-2024,09:58:57,5/20/2024 1:58:57 PM,2033,1,17,DelayDiscountingTitrated Backup1-2033-1,533347338,1,60.020,"<?xml version=""1.0""?>\n<Clock xmlns:dt=""urn:schemas-microsoft-com:datatypes""><Description dt:dt=""string"">E-Prime Primary Realtime Clock</Description><StartTime><Timestamp dt:dt=""int"">0</Timestamp><DateUtc dt:dt=""string"">2024-05-20T13:58:57Z</DateUtc></StartTime><FrequencyChanges><FrequencyChange><Frequency dt:dt=""r8"">10000000</Frequency><Timestamp dt:dt=""r8"">11519633580227</Timestamp><Current dt:dt=""r8"">0</Current><DateUtc dt:dt=""string"">2024-05-20T13:58:57Z</DateUtc></FrequencyChange></FrequencyChanges></Clock>\n",2.0.10.252,2.0.10.356,2.0.10.356,Professional,1.0.0.1
TrialProc,,List2,,,,,,,887,3,875,875,870,3,0,,12,,,,,,,,,,,,,,,,,,,,,,,,,,,,,,,,,,,6,1,6,,,,DelayDiscountingTitrated Backup1,05-20-2024,09:58:57,5/20/2024 1:58:57 PM,2033,1,17,DelayDiscountingTitrated Backup1-2033-1,533347338,1,60.020,"<?xml version=""1.0""?>\n<Clock xmlns:dt=""urn:schemas-microsoft-com:datatypes""><Description dt:dt=""string"">E-Prime Primary Realtime Clock</Description><StartTime><Timestamp dt:dt=""int"">0</Timestamp><DateUtc dt:dt=""string"">2024-05-20T13:58:57Z</DateUtc></StartTime><FrequencyChanges><FrequencyChange><Frequency dt:dt=""r8"">10000000</Frequency><Timestamp dt:dt=""r8"">11519633580227</Timestamp><Current dt:dt=""r8"">0</Current><DateUtc dt:dt=""string"">2024-05-20T13:58:57Z</DateUtc></FrequencyChange></FrequencyChanges></Clock>\n",2.0.10.252,2.0.10.356,2.0.10.356,Professional,1.0.0.1
TrialProc,,List2,,,,,,,893,3,887,887,1154,3,0,,6,,,,,,,,,,,,,,,,,,,,,,,,,,,,,,,,,,,7,1,7,,,,DelayDiscountingTitrated Backup1,05-20-2024,09:58:57,5/20/2024 1:58:57 PM,2033,1,17,DelayDiscountingTitrated Backup1-2033-1,533347338,1,60.020,"<?xml version=""1.0""?>\n<Clock xmlns:dt=""urn:schemas-microsoft-com:datatypes""><Description dt:dt=""string"">E-Prime Primary Realtime Clock</Description><StartTime><Timestamp dt:dt=""int"">0</Timestamp><DateUtc dt:dt=""string"">2024-05-20T13:58:57Z</DateUtc></StartTime><FrequencyChanges><FrequencyChange><Frequency dt:dt=""r8"">10000000</Frequency><Timestamp dt:dt=""r8"">11519633580227</Timestamp><Current dt:dt=""r8"">0</Current><DateUtc dt:dt=""string"">2024-05-20T13:58:57Z</DateUtc></FrequencyChange></FrequencyChanges></Clock>\n",2.0.10.252,2.0.10.356,2.0.10.356,Professional,1.0.0.1
TrialProc,,List2,,,,,,,896,3,893,893,1139,3,0,,3,,,,,,,,,,,,,,,,,,,,,,,,,,,,,,,,,,,8,1,8,,,,DelayDiscountingTitrated Backup1,05-20-2024,09:58:57,5/20/2024 1:58:57 PM,2033,1,17,DelayDiscountingTitrated Backup1-2033-1,533347338,1,60.020,"<?xml version=""1.0""?>\n<Clock xmlns:dt=""urn:schemas-microsoft-com:datatypes""><Description dt:dt=""string"">E-Prime Primary Realtime Clock</Description><StartTime><Timestamp dt:dt=""int"">0</Timestamp><DateUtc dt:dt=""string"">2024-05-20T13:58:57Z</DateUtc></StartTime><FrequencyChanges><FrequencyChange><Frequency dt:dt=""r8"">10000000</Frequency><Timestamp dt:dt=""r8"">11519633580227</Timestamp><Current dt:dt=""r8"">0</Current><DateUtc dt:dt=""string"">2024-05-20T13:58:57Z</DateUtc></FrequencyChange></FrequencyChanges></Clock>\n",2.0.10.252,2.0.10.356,2.0.10.356,Professional,1.0.0.1
TrialProc,,List2,,,,,,,898,3,896,896,812,3,0,,2,,,,,,,,,,,,,,,,,,,,,,,,,,,,,,,,,,,9,1,9,,,,DelayDiscountingTitrated Backup1,05-20-2024,09:58:57,5/20/2024 1:58:57 PM,2033,1,17,DelayDiscountingTitrated Backup1-2033-1,533347338,1,60.020,"<?xml version=""1.0""?>\n<Clock xmlns:dt=""urn:schemas-microsoft-com:datatypes""><Description dt:dt=""string"">E-Prime Primary Realtime Clock</Description><StartTime><Timestamp dt:dt=""int"">0</Timestamp><DateUtc dt:dt=""string"">2024-05-20T13:58:57Z</DateUtc></StartTime><FrequencyChanges><FrequencyChange><Frequency dt:dt=""r8"">10000000</Frequency><Timestamp dt:dt=""r8"">11519633580227</Timestamp><Current dt:dt=""r8"">0</Current><DateUtc dt:dt=""string"">2024-05-20T13:58:57Z</DateUtc></FrequencyChange></FrequencyChanges></Clock>\n",2.0.10.252,2.0.10.356,2.0.10.356,Professional,1.0.0.1
TrialProc,,List2,,,,,,,899,3,898,898,1650,3,0,,1,,,,,,,,,,,,,,,,,,,,,,,,,,,,,,,,,,,10,1,10,,,,DelayDiscountingTitrated Backup1,05-20-2024,09:58:57,5/20/2024 1:58:57 PM,2033,1,17,DelayDiscountingTitrated Backup1-2033-1,533347338,1,60.020,"<?xml version=""1.0""?>\n<Clock xmlns:dt=""urn:schemas-microsoft-com:datatypes""><Description dt:dt=""string"">E-Prime Primary Realtime Clock</Description><StartTime><Timestamp dt:dt=""int"">0</Timestamp><DateUtc dt:dt=""string"">2024-05-20T13:58:57Z</DateUtc></StartTime><FrequencyChanges><FrequencyChange><Frequency dt:dt=""r8"">10000000</Frequency><Timestamp dt:dt=""r8"">11519633580227</Timestamp><Current dt:dt=""r8"">0</Current><DateUtc dt:dt=""string"">2024-05-20T13:58:57Z</DateUtc></FrequencyChange></FrequencyChanges></Clock>\n",2.0.10.252,2.0.10.356,2.0.10.356,Professional,1.0.0.1
TrialProc,,List2,,,,,,,899,3,898,899,1583,3,0,,,,,,,,,,,,,,,,,,,,,,,,,,,,,,,,,,,,,11,1,11,,,,DelayDiscountingTitrated Backup1,05-20-2024,09:58:57,5/20/2024 1:58:57 PM,2033,1,17,DelayDiscountingTitrated Backup1-2033-1,533347338,1,60.020,"<?xml version=""1.0""?>\n<Clock xmlns:dt=""urn:schemas-microsoft-com:datatypes""><Description dt:dt=""string"">E-Prime Primary Realtime Clock</Description><StartTime><Timestamp dt:dt=""int"">0</Timestamp><DateUtc dt:dt=""string"">2024-05-20T13:58:57Z</DateUtc></StartTime><FrequencyChanges><FrequencyChange><Frequency dt:dt=""r8"">10000000</Frequency><Timestamp dt:dt=""r8"">11519633580227</Timestamp><Current dt:dt=""r8"">0</Current><DateUtc dt:dt=""string"">2024-05-20T13:58:57Z</DateUtc></FrequencyChange></FrequencyChanges></Clock>\n",2.0.10.252,2.0.10.356,2.0.10.356,Professional,1.0.0.1
discount,,List3,,,,,,,,,,,,,,,,200,1 week,7,,,,,,,,,,,,,,,,,,,,,,,,,,,,,,,,,,,1,1,1,DelayDiscountingTitrated Backup1,05-20-2024,09:58:57,5/20/2024 1:58:57 PM,2033,1,17,DelayDiscountingTitrated Backup1-2033-1,533347338,1,60.020,"<?xml version=""1.0""?>\n<Clock xmlns:dt=""urn:schemas-microsoft-com:datatypes""><Description dt:dt=""string"">E-Prime Primary Realtime Clock</Description><StartTime><Timestamp dt:dt=""int"">0</Timestamp><DateUtc dt:dt=""string"">2024-05-20T13:58:57Z</DateUtc></StartTime><FrequencyChanges><FrequencyChange><Frequency dt:dt=""r8"">10000000</Frequency><Timestamp dt:dt=""r8"">11519633580227</Timestamp><Current dt:dt=""r8"">0</Current><DateUtc dt:dt=""string"">2024-05-20T13:58:57Z</DateUtc></FrequencyChange></FrequencyChanges></Clock>\n",2.0.10.252,2.0.10.356,2.0.10.356,Professional,1.0.0.1
onewkproc,,List1,,,,,,,,,,,,,,,,,,,,,,1,1,6,6,,,,,,,,,,,,,,,,,,,,,,,,,,,,,,,DelayDiscountingTitrated Backup1,05-20-2024,09:58:57,5/20/2024 1:58:57 PM,2033,1,17,DelayDiscountingTitrated Backup1-2033-1,533347338,1,60.020,"<?xml version=""1.0""?>\n<Clock xmlns:dt=""urn:schemas-microsoft-com:datatypes""><Description dt:dt=""string"">E-Prime Primary Realtime Clock</Description><StartTime><Timestamp dt:dt=""int"">0</Timestamp><DateUtc dt:dt=""string"">2024-05-20T13:58:57Z</DateUtc></StartTime><FrequencyChanges><FrequencyChange><Frequency dt:dt=""r8"">10000000</Frequency><Timestamp dt:dt=""r8"">11519633580227</Timestamp><Current dt:dt=""r8"">0</Current><DateUtc dt:dt=""string"">2024-05-20T13:58:57Z</DateUtc></FrequencyChange></FrequencyChanges></Clock>\n",2.0.10.252,2.0.10.356,2.0.10.356,Professional,1.0.0.1
,,,,,,,,,,,,,,,,,,,,,,,,,,,,,,,,,,,,,,,,,,,,,,,,,,,,,,,,,,DelayDiscountingTitrated Backup1,05-20-2024,09:58:57,5/20/2024 1:58:57 PM,2033,1,17,DelayDiscountingTitrated Backup1-2033-1,533347338,1,60.020,"<?xml version=""1.0""?>\n<Clock xmlns:dt=""urn:schemas-microsoft-com:datatypes""><Description dt:dt=""string"">E-Prime Primary Realtime Clock</Description><StartTime><Timestamp dt:dt=""int"">0</Timestamp><DateUtc dt:dt=""string"">2024-05-20T13:58:57Z</DateUtc></StartTime><FrequencyChanges><FrequencyChange><Frequency dt:dt=""r8"">10000000</Frequency><Timestamp dt:dt=""r8"">11519633580227</Timestamp><Current dt:dt=""r8"">0</Current><DateUtc dt:dt=""string"">2024-05-20T13:58:57Z</DateUtc></FrequencyChange></FrequencyChanges></Clock>\n",2.0.10.252,2.0.10.356,2.0.10.356,Professional,1.0.0.1
