Procedure,List2,Running,List2.Cycle,List2.Sample,Slide2.RT,Slide2.RESP,Slide4.RT,Slide4.RESP,immed3,respprev,prevalue,imstring,Slide1.RT,Slide1.RESP,Slide5.RT,Slide5.RESP,immed5,immed,delaypd,List3,timedays,List3.Cycle,List3.Sample,List1,List1.Cycle,List1.Sample,roundnumber,List11,List11.Cycle,List11.Sample,List6,List6.Cycle,List6.Sample,List9,List9.Cycle,List9.Sample,List4,List4.Cycle,List4.Sample,List10,List10.Cycle,List10.Sample,List5,List5.Cycle,List5.Sample,List13,List13.Cycle,List13.Sample,List8,List8.Cycle,List8.Sample,List12,List12.Cycle,List12.Sample,List7,List7.Cycle,List7.Sample,Experiment,SessionDate,SessionTime,SessionStartDateTimeUtc,Subject,Session,Age,DataFile.Basename,RandomSeed,Group,Display.RefreshRate,Clock.Information,StudioVersion,RuntimeVersion,RuntimeVersionExpected,RuntimeCapabilities,ExperimentVersion
TrialProcInit,1,List2,1,1,4072,3,0,,900,3,800,,,,,,,,,,,,,,,,,,,,,,,,,,,,,,,,,,,,,,,,,,,,,,,DelayDiscountingTitrated Backup1,07-20-2023,10:06:42,7/20/2023 2:06:42 PM,3009,1,19,DelayDiscountingTitrated Backup1-3009-1,-811525653,1,60.018,"<?xml version=""1.0""?>\n<Clock xmlns:dt=""urn:schemas-microsoft-com:datatypes""><Description dt:dt=""string"">E-Prime Primary Realtime Clock</Description><StartTime><Timestamp dt:dt=""int"">0</Timestamp><DateUtc dt:dt=""string"">2023-07-20T14:06:42Z</DateUtc></StartTime><FrequencyChanges><FrequencyChange><Frequency dt:dt=""r8"">10000000</Frequency><Timestamp dt:dt=""r8"">2378598381965</Timestamp><Current dt:dt=""r8"">0</Current><DateUtc dt:dt=""string"">2023-07-20T14:06:42Z</DateUtc></FrequencyChange></FrequencyChanges></Clock>\n",2.0.10.252,2.0.10.356,2.0.10.356,Professional,1.0.0.1
TrialProc,2,List2,1,2,,,,,950,3,900,900,4276,3,0,,50,,,,,,,,,,,,,,,,,,,,,,,,,,,,,,,,,,,,,,,,,DelayDiscountingTitrated Backup1,07-20-2023,10:06:42,7/20/2023 2:06:42 PM,3009,1,19,DelayDiscountingTitrated Backup1-3009-1,-811525653,1,60.018,"<?xml version=""1.0""?>\n<Clock xmlns:dt=""urn:schemas-microsoft-com:datatypes""><Description dt:dt=""string"">E-Prime Primary Realtime Clock</Description><StartTime><Timestamp dt:dt=""int"">0</Timestamp><DateUtc dt:dt=""string"">2023-07-20T14:06:42Z</DateUtc></StartTime><FrequencyChanges><FrequencyChange><Frequency dt:dt=""r8"">10000000</Frequency><Timestamp dt:dt=""r8"">2378598381965</Timestamp><Current dt:dt=""r8"">0</Current><DateUtc dt:dt=""string"">2023-07-20T14:06:42Z</DateUtc></FrequencyChange></FrequencyChanges></Clock>\n",2.0.10.252,2.0.10.356,2.0.10.356,Professional,1.0.0.1
TrialProc,3,List2,1,3,,,,,975,3,950,950,3865,3,0,,25,,,,,,,,,,,,,,,,,,,,,,,,,,,,,,,,,,,,,,,,,DelayDiscountingTitrated Backup1,07-20-2023,10:06:42,7/20/2023 2:06:42 PM,3009,1,19,DelayDiscountingTitrated Backup1-3009-1,-811525653,1,60.018,"<?xml version=""1.0""?>\n<Clock xmlns:dt=""urn:schemas-microsoft-com:datatypes""><Description dt:dt=""string"">E-Prime Primary Realtime Clock</Description><StartTime><Timestamp dt:dt=""int"">0</Timestamp><DateUtc dt:dt=""string"">2023-07-20T14:06:42Z</DateUtc></StartTime><FrequencyChanges><FrequencyChange><Frequency dt:dt=""r8"">10000000</Frequency><Timestamp dt:dt=""r8"">2378598381965</Timestamp><Current dt:dt=""r8"">0</Current><DateUtc dt:dt=""string"">2023-07-20T14:06:42Z</DateUtc></FrequencyChange></FrequencyChanges></Clock>\n",2.0.10.252,2.0.10.356,2.0.10.356,Professional,1.0.0.1
TrialProc,4,List2,1,4,,,,,987,3,975,975,3829,3,0,,12,,,,,,,,,,,,,,,,,,,,,,,,,,,,,,,,,,,,,,,,,DelayDiscountingTitrated Backup1,07-20-2023,10:06:42,7/20/2023 2:06:42 PM,3009,1,19,DelayDiscountingTitrated Backup1-3009-1,-811525653,1,60.018,"<?xml version=""1.0""?>\n<Clock xmlns:dt=""urn:schemas-microsoft-com:datatypes""><Description dt:dt=""string"">E-Prime Primary Realtime Clock</Description><StartTime><Timestamp dt:dt=""int"">0</Timestamp><DateUtc dt:dt=""string"">2023-07-20T14:06:42Z</DateUtc></StartTime><FrequencyChanges><FrequencyChange><Frequency dt:dt=""r8"">10000000</Frequency><Timestamp dt:dt=""r8"">2378598381965</Timestamp><Current dt:dt=""r8"">0</Current><DateUtc dt:dt=""string"">2023-07-20T14:06:42Z</DateUtc></FrequencyChange></FrequencyChanges></Clock>\n",2.0.10.252,2.0.10.356,2.0.10.356,Professional,1.0.0.1
TrialProc,5,List2,1,5,,,,,993,3,987,987,3748,3,0,,6,,,,,,,,,,,,,,,,,,,,,,,,,,,,,,,,,,,,,,,,,DelayDiscountingTitrated Backup1,07-20-2023,10:06:42,7/20/2023 2:06:42 PM,3009,1,19,DelayDiscountingTitrated Backup1-3009-1,-811525653,1,60.018,"<?xml version=""1.0""?>\n<Clock xmlns:dt=""urn:schemas-microsoft-com:datatypes""><Description dt:dt=""string"">E-Prime Primary Realtime Clock</Description><StartTime><Timestamp dt:dt=""int"">0</Timestamp><DateUtc dt:dt=""string"">2023-07-20T14:06:42Z</DateUtc></StartTime><FrequencyChanges><FrequencyChange><Frequency dt:dt=""r8"">10000000</Frequency><Timestamp dt:dt=""r8"">2378598381965</Timestamp><Current dt:dt=""r8"">0</Current><DateUtc dt:dt=""string"">2023-07-20T14:06:42Z</DateUtc></FrequencyChange></FrequencyChanges></Clock>\n",2.0.10.252,2.0.10.356,2.0.10.356,Professional,1.0.0.1
TrialProc,6,List2,1,6,,,,,990,1,993,993,1509,1,0,,3,,,,,,,,,,,,,,,,,,,,,,,,,,,,,,,,,,,,,,,,,DelayDiscountingTitrated Backup1,07-20-2023,10:06:42,7/20/2023 2:06:42 PM,3009,1,19,DelayDiscountingTitrated Backup1-3009-1,-811525653,1,60.018,"<?xml version=""1.0""?>\n<Clock xmlns:dt=""urn:schemas-microsoft-com:datatypes""><Description dt:dt=""string"">E-Prime Primary Realtime Clock</Description><StartTime><Timestamp dt:dt=""int"">0</Timestamp><DateUtc dt:dt=""string"">2023-07-20T14:06:42Z</DateUtc></StartTime><FrequencyChanges><FrequencyChange><Frequency dt:dt=""r8"">10000000</Frequency><Timestamp dt:dt=""r8"">2378598381965</Timestamp><Current dt:dt=""r8"">0</Current><DateUtc dt:dt=""string"">2023-07-20T14:06:42Z</DateUtc></FrequencyChange></FrequencyChanges></Clock>\n",2.0.10.252,2.0.10.356,2.0.10.356,Professional,1.0.0.1
TrialProc,7,List2,1,7,,,,,992,3,990,990,1871,3,0,,2,,,,,,,,,,,,,,,,,,,,,,,,,,,,,,,,,,,,,,,,,DelayDiscountingTitrated Backup1,07-20-2023,10:06:42,7/20/2023 2:06:42 PM,3009,1,19,DelayDiscountingTitrated Backup1-3009-1,-811525653,1,60.018,"<?xml version=""1.0""?>\n<Clock xmlns:dt=""urn:schemas-microsoft-com:datatypes""><Description dt:dt=""string"">E-Prime Primary Realtime Clock</Description><StartTime><Timestamp dt:dt=""int"">0</Timestamp><DateUtc dt:dt=""string"">2023-07-20T14:06:42Z</DateUtc></StartTime><FrequencyChanges><FrequencyChange><Frequency dt:dt=""r8"">10000000</Frequency><Timestamp dt:dt=""r8"">2378598381965</Timestamp><Current dt:dt=""r8"">0</Current><DateUtc dt:dt=""string"">2023-07-20T14:06:42Z</DateUtc></FrequencyChange></FrequencyChanges></Clock>\n",2.0.10.252,2.0.10.356,2.0.10.356,Professional,1.0.0.1
TrialProc,8,List2,1,8,,,,,991,1,992,992,3795,1,0,,1,,,,,,,,,,,,,,,,,,,,,,,,,,,,,,,,,,,,,,,,,DelayDiscountingTitrated Backup1,07-20-2023,10:06:42,7/20/2023 2:06:42 PM,3009,1,19,DelayDiscountingTitrated Backup1-3009-1,-811525653,1,60.018,"<?xml version=""1.0""?>\n<Clock xmlns:dt=""urn:schemas-microsoft-com:datatypes""><Description dt:dt=""string"">E-Prime Primary Realtime Clock</Description><StartTime><Timestamp dt:dt=""int"">0</Timestamp><DateUtc dt:dt=""string"">2023-07-20T14:06:42Z</DateUtc></StartTime><FrequencyChanges><FrequencyChange><Frequency dt:dt=""r8"">10000000</Frequency><Timestamp dt:dt=""r8"">2378598381965</Timestamp><Current dt:dt=""r8"">0</Current><DateUtc dt:dt=""string"">2023-07-20T14:06:42Z</DateUtc></FrequencyChange></FrequencyChanges></Clock>\n",2.0.10.252,2.0.10.356,2.0.10.356,Professional,1.0.0.1
TrialProc,9,List2,1,9,,,,,991,3,992,991,1587,3,0,,,,,,,,,,,,,,,,,,,,,,,,,,,,,,,,,,,,,,,,,,,DelayDiscountingTitrated Backup1,07-20-2023,10:06:42,7/20/2023 2:06:42 PM,3009,1,19,DelayDiscountingTitrated Backup1-3009-1,-811525653,1,60.018,"<?xml version=""1.0""?>\n<Clock xmlns:dt=""urn:schemas-microsoft-com:datatypes""><Description dt:dt=""string"">E-Prime Primary Realtime Clock</Description><StartTime><Timestamp dt:dt=""int"">0</Timestamp><DateUtc dt:dt=""string"">2023-07-20T14:06:42Z</DateUtc></StartTime><FrequencyChanges><FrequencyChange><Frequency dt:dt=""r8"">10000000</Frequency><Timestamp dt:dt=""r8"">2378598381965</Timestamp><Current dt:dt=""r8"">0</Current><DateUtc dt:dt=""string"">2023-07-20T14:06:42Z</DateUtc></FrequencyChange></FrequencyChanges></Clock>\n",2.0.10.252,2.0.10.356,2.0.10.356,Professional,1.0.0.1
discount,,List3,,,,,,,,,,,,,,,,800,1 week,3,7,1,1,,,,,,,,,,,,,,,,,,,,,,,,,,,,,,,,,,,DelayDiscountingTitrated Backup1,07-20-2023,10:06:42,7/20/2023 2:06:42 PM,3009,1,19,DelayDiscountingTitrated Backup1-3009-1,-811525653,1,60.018,"<?xml version=""1.0""?>\n<Clock xmlns:dt=""urn:schemas-microsoft-com:datatypes""><Description dt:dt=""string"">E-Prime Primary Realtime Clock</Description><StartTime><Timestamp dt:dt=""int"">0</Timestamp><DateUtc dt:dt=""string"">2023-07-20T14:06:42Z</DateUtc></StartTime><FrequencyChanges><FrequencyChange><Frequency dt:dt=""r8"">10000000</Frequency><Timestamp dt:dt=""r8"">2378598381965</Timestamp><Current dt:dt=""r8"">0</Current><DateUtc dt:dt=""string"">2023-07-20T14:06:42Z</DateUtc></FrequencyChange></FrequencyChanges></Clock>\n",2.0.10.252,2.0.10.356,2.0.10.356,Professional,1.0.0.1
onewkproc,,List1,,,,,,,,,,,,,,,,,,,,,,1,1,1,1,,,,,,,,,,,,,,,,,,,,,,,,,,,,,,,DelayDiscountingTitrated Backup1,07-20-2023,10:06:42,7/20/2023 2:06:42 PM,3009,1,19,DelayDiscountingTitrated Backup1-3009-1,-811525653,1,60.018,"<?xml version=""1.0""?>\n<Clock xmlns:dt=""urn:schemas-microsoft-com:datatypes""><Description dt:dt=""string"">E-Prime Primary Realtime Clock</Description><StartTime><Timestamp dt:dt=""int"">0</Timestamp><DateUtc dt:dt=""string"">2023-07-20T14:06:42Z</DateUtc></StartTime><FrequencyChanges><FrequencyChange><Frequency dt:dt=""r8"">10000000</Frequency><Timestamp dt:dt=""r8"">2378598381965</Timestamp><Current dt:dt=""r8"">0</Current><DateUtc dt:dt=""string"">2023-07-20T14:06:42Z</DateUtc></FrequencyChange></FrequencyChanges></Clock>\n",2.0.10.252,2.0.10.356,2.0.10.356,Professional,1.0.0.1
Init3,,List11,,,3475,1,0,,250,1,500,,,,,,,,,,,,,,,,,1,1,1,,,,,,,,,,,,,,,,,,,,,,,,,,,,DelayDiscountingTitrated Backup1,07-20-2023,10:06:42,7/20/2023 2:06:42 PM,3009,1,19,DelayDiscountingTitrated Backup1-3009-1,-811525653,1,60.018,"<?xml version=""1.0""?>\n<Clock xmlns:dt=""urn:schemas-microsoft-com:datatypes""><Description dt:dt=""string"">E-Prime Primary Realtime Clock</Description><StartTime><Timestamp dt:dt=""int"">0</Timestamp><DateUtc dt:dt=""string"">2023-07-20T14:06:42Z</DateUtc></StartTime><FrequencyChanges><FrequencyChange><Frequency dt:dt=""r8"">10000000</Frequency><Timestamp dt:dt=""r8"">2378598381965</Timestamp><Current dt:dt=""r8"">0</Current><DateUtc dt:dt=""string"">2023-07-20T14:06:42Z</DateUtc></FrequencyChange></FrequencyChanges></Clock>\n",2.0.10.252,2.0.10.356,2.0.10.356,Professional,1.0.0.1
Proc3,,List11,,,,,,,375,3,250,250,3672,3,0,,125,,,,,,,,,,,2,1,2,,,,,,,,,,,,,,,,,,,,,,,,,,,,DelayDiscountingTitrated Backup1,07-20-2023,10:06:42,7/20/2023 2:06:42 PM,3009,1,19,DelayDiscountingTitrated Backup1-3009-1,-811525653,1,60.018,"<?xml version=""1.0""?>\n<Clock xmlns:dt=""urn:schemas-microsoft-com:datatypes""><Description dt:dt=""string"">E-Prime Primary Realtime Clock</Description><StartTime><Timestamp dt:dt=""int"">0</Timestamp><DateUtc dt:dt=""string"">2023-07-20T14:06:42Z</DateUtc></StartTime><FrequencyChanges><FrequencyChange><Frequency dt:dt=""r8"">10000000</Frequency><Timestamp dt:dt=""r8"">2378598381965</Timestamp><Current dt:dt=""r8"">0</Current><DateUtc dt:dt=""string"">2023-07-20T14:06:42Z</DateUtc></FrequencyChange></FrequencyChanges></Clock>\n",2.0.10.252,2.0.10.356,2.0.10.356,Professional,1.0.0.1
Proc3,,List11,,,,,,,437,3,375,375,1892,3,0,,62,,,,,,,,,,,3,1,3,,,,,,,,,,,,,,,,,,,,,,,,,,,,DelayDiscountingTitrated Backup1,07-20-2023,10:06:42,7/20/2023 2:06:42 PM,3009,1,19,DelayDiscountingTitrated Backup1-3009-1,-811525653,1,60.018,"<?xml version=""1.0""?>\n<Clock xmlns:dt=""urn:schemas-microsoft-com:datatypes""><Description dt:dt=""string"">E-Prime Primary Realtime Clock</Description><StartTime><Timestamp dt:dt=""int"">0</Timestamp><DateUtc dt:dt=""string"">2023-07-20T14:06:42Z</DateUtc></StartTime><FrequencyChanges><FrequencyChange><Frequency dt:dt=""r8"">10000000</Frequency><Timestamp dt:dt=""r8"">2378598381965</Timestamp><Current dt:dt=""r8"">0</Current><DateUtc dt:dt=""string"">2023-07-20T14:06:42Z</DateUtc></FrequencyChange></FrequencyChanges></Clock>\n",2.0.10.252,2.0.10.356,2.0.10.356,Professional,1.0.0.1
Proc3,,List11,,,,,,,406,1,437,437,1848,1,0,,31,,,,,,,,,,,4,1,4,,,,,,,,,,,,,,,,,,,,,,,,,,,,DelayDiscountingTitrated Backup1,07-20-2023,10:06:42,7/20/2023 2:06:42 PM,3009,1,19,DelayDiscountingTitrated Backup1-3009-1,-811525653,1,60.018,"<?xml version=""1.0""?>\n<Clock xmlns:dt=""urn:schemas-microsoft-com:datatypes""><Description dt:dt=""string"">E-Prime Primary Realtime Clock</Description><StartTime><Timestamp dt:dt=""int"">0</Timestamp><DateUtc dt:dt=""string"">2023-07-20T14:06:42Z</DateUtc></StartTime><FrequencyChanges><FrequencyChange><Frequency dt:dt=""r8"">10000000</Frequency><Timestamp dt:dt=""r8"">2378598381965</Timestamp><Current dt:dt=""r8"">0</Current><DateUtc dt:dt=""string"">2023-07-20T14:06:42Z</DateUtc></FrequencyChange></FrequencyChanges></Clock>\n",2.0.10.252,2.0.10.356,2.0.10.356,Professional,1.0.0.1
Proc3,,List11,,,,,,,390,1,406,406,3181,1,0,,16,,,,,,,,,,,5,1,5,,,,,,,,,,,,,,,,,,,,,,,,,,,,DelayDiscountingTitrated Backup1,07-20-2023,10:06:42,7/20/2023 2:06:42 PM,3009,1,19,DelayDiscountingTitrated Backup1-3009-1,-811525653,1,60.018,"<?xml version=""1.0""?>\n<Clock xmlns:dt=""urn:schemas-microsoft-com:datatypes""><Description dt:dt=""string"">E-Prime Primary Realtime Clock</Description><StartTime><Timestamp dt:dt=""int"">0</Timestamp><DateUtc dt:dt=""string"">2023-07-20T14:06:42Z</DateUtc></StartTime><FrequencyChanges><FrequencyChange><Frequency dt:dt=""r8"">10000000</Frequency><Timestamp dt:dt=""r8"">2378598381965</Timestamp><Current dt:dt=""r8"">0</Current><DateUtc dt:dt=""string"">2023-07-20T14:06:42Z</DateUtc></FrequencyChange></FrequencyChanges></Clock>\n",2.0.10.252,2.0.10.356,2.0.10.356,Professional,1.0.0.1
Proc3,,List11,,,,,,,398,3,390,390,973,3,0,,8,,,,,,,,,,,6,1,6,,,,,,,,,,,,,,,,,,,,,,,,,,,,DelayDiscountingTitrated Backup1,07-20-2023,10:06:42,7/20/2023 2:06:42 PM,3009,1,19,DelayDiscountingTitrated Backup1-3009-1,-811525653,1,60.018,"<?xml version=""1.0""?>\n<Clock xmlns:dt=""urn:schemas-microsoft-com:datatypes""><Description dt:dt=""string"">E-Prime Primary Realtime Clock</Description><StartTime><Timestamp dt:dt=""int"">0</Timestamp><DateUtc dt:dt=""string"">2023-07-20T14:06:42Z</DateUtc></StartTime><FrequencyChanges><FrequencyChange><Frequency dt:dt=""r8"">10000000</Frequency><Timestamp dt:dt=""r8"">2378598381965</Timestamp><Current dt:dt=""r8"">0</Current><DateUtc dt:dt=""string"">2023-07-20T14:06:42Z</DateUtc></FrequencyChange></FrequencyChanges></Clock>\n",2.0.10.252,2.0.10.356,2.0.10.356,Professional,1.0.0.1
Proc3,,List11,,,,,,,402,3,398,398,1021,3,0,,4,,,,,,,,,,,7,1,7,,,,,,,,,,,,,,,,,,,,,,,,,,,,DelayDiscountingTitrated Backup1,07-20-2023,10:06:42,7/20/2023 2:06:42 PM,3009,1,19,DelayDiscountingTitrated Backup1-3009-1,-811525653,1,60.018,"<?xml version=""1.0""?>\n<Clock xmlns:dt=""urn:schemas-microsoft-com:datatypes""><Description dt:dt=""string"">E-Prime Primary Realtime Clock</Description><StartTime><Timestamp dt:dt=""int"">0</Timestamp><DateUtc dt:dt=""string"">2023-07-20T14:06:42Z</DateUtc></StartTime><FrequencyChanges><FrequencyChange><Frequency dt:dt=""r8"">10000000</Frequency><Timestamp dt:dt=""r8"">2378598381965</Timestamp><Current dt:dt=""r8"">0</Current><DateUtc dt:dt=""string"">2023-07-20T14:06:42Z</DateUtc></FrequencyChange></FrequencyChanges></Clock>\n",2.0.10.252,2.0.10.356,2.0.10.356,Professional,1.0.0.1
Proc3,,List11,,,,,,,400,1,402,402,1331,1,0,,2,,,,,,,,,,,8,1,8,,,,,,,,,,,,,,,,,,,,,,,,,,,,DelayDiscountingTitrated Backup1,07-20-2023,10:06:42,7/20/2023 2:06:42 PM,3009,1,19,DelayDiscountingTitrated Backup1-3009-1,-811525653,1,60.018,"<?xml version=""1.0""?>\n<Clock xmlns:dt=""urn:schemas-microsoft-com:datatypes""><Description dt:dt=""string"">E-Prime Primary Realtime Clock</Description><StartTime><Timestamp dt:dt=""int"">0</Timestamp><DateUtc dt:dt=""string"">2023-07-20T14:06:42Z</DateUtc></StartTime><FrequencyChanges><FrequencyChange><Frequency dt:dt=""r8"">10000000</Frequency><Timestamp dt:dt=""r8"">2378598381965</Timestamp><Current dt:dt=""r8"">0</Current><DateUtc dt:dt=""string"">2023-07-20T14:06:42Z</DateUtc></FrequencyChange></FrequencyChanges></Clock>\n",2.0.10.252,2.0.10.356,2.0.10.356,Professional,1.0.0.1
Proc3,,List11,,,,,,,399,1,400,400,1556,1,0,,1,,,,,,,,,,,9,1,9,,,,,,,,,,,,,,,,,,,,,,,,,,,,DelayDiscountingTitrated Backup1,07-20-2023,10:06:42,7/20/2023 2:06:42 PM,3009,1,19,DelayDiscountingTitrated Backup1-3009-1,-811525653,1,60.018,"<?xml version=""1.0""?>\n<Clock xmlns:dt=""urn:schemas-microsoft-com:datatypes""><Description dt:dt=""string"">E-Prime Primary Realtime Clock</Description><StartTime><Timestamp dt:dt=""int"">0</Timestamp><DateUtc dt:dt=""string"">2023-07-20T14:06:42Z</DateUtc></StartTime><FrequencyChanges><FrequencyChange><Frequency dt:dt=""r8"">10000000</Frequency><Timestamp dt:dt=""r8"">2378598381965</Timestamp><Current dt:dt=""r8"">0</Current><DateUtc dt:dt=""string"">2023-07-20T14:06:42Z</DateUtc></FrequencyChange></FrequencyChanges></Clock>\n",2.0.10.252,2.0.10.356,2.0.10.356,Professional,1.0.0.1
Proc3,,List11,,,,,,,399,3,400,399,765,3,0,,,,,,,,,,,,,10,1,10,,,,,,,,,,,,,,,,,,,,,,,,,,,,DelayDiscountingTitrated Backup1,07-20-2023,10:06:42,7/20/2023 2:06:42 PM,3009,1,19,DelayDiscountingTitrated Backup1-3009-1,-811525653,1,60.018,"<?xml version=""1.0""?>\n<Clock xmlns:dt=""urn:schemas-microsoft-com:datatypes""><Description dt:dt=""string"">E-Prime Primary Realtime Clock</Description><StartTime><Timestamp dt:dt=""int"">0</Timestamp><DateUtc dt:dt=""string"">2023-07-20T14:06:42Z</DateUtc></StartTime><FrequencyChanges><FrequencyChange><Frequency dt:dt=""r8"">10000000</Frequency><Timestamp dt:dt=""r8"">2378598381965</Timestamp><Current dt:dt=""r8"">0</Current><DateUtc dt:dt=""string"">2023-07-20T14:06:42Z</DateUtc></FrequencyChange></FrequencyChanges></Clock>\n",2.0.10.252,2.0.10.356,2.0.10.356,Professional,1.0.0.1
discount3,,List6,,,,,,,,,,,,,,,,500,1 year,,365,,,,,,,,,,2,1,1,,,,,,,,,,,,,,,,,,,,,,,,,DelayDiscountingTitrated Backup1,07-20-2023,10:06:42,7/20/2023 2:06:42 PM,3009,1,19,DelayDiscountingTitrated Backup1-3009-1,-811525653,1,60.018,"<?xml version=""1.0""?>\n<Clock xmlns:dt=""urn:schemas-microsoft-com:datatypes""><Description dt:dt=""string"">E-Prime Primary Realtime Clock</Description><StartTime><Timestamp dt:dt=""int"">0</Timestamp><DateUtc dt:dt=""string"">2023-07-20T14:06:42Z</DateUtc></StartTime><FrequencyChanges><FrequencyChange><Frequency dt:dt=""r8"">10000000</Frequency><Timestamp dt:dt=""r8"">2378598381965</Timestamp><Current dt:dt=""r8"">0</Current><DateUtc dt:dt=""string"">2023-07-20T14:06:42Z</DateUtc></FrequencyChange></FrequencyChanges></Clock>\n",2.0.10.252,2.0.10.356,2.0.10.356,Professional,1.0.0.1
oneyearproc,,List1,,,,,,,,,,,,,,,,,,,,,,4,1,2,2,,,,,,,,,,,,,,,,,,,,,,,,,,,,,,,DelayDiscountingTitrated Backup1,07-20-2023,10:06:42,7/20/2023 2:06:42 PM,3009,1,19,DelayDiscountingTitrated Backup1-3009-1,-811525653,1,60.018,"<?xml version=""1.0""?>\n<Clock xmlns:dt=""urn:schemas-microsoft-com:datatypes""><Description dt:dt=""string"">E-Prime Primary Realtime Clock</Description><StartTime><Timestamp dt:dt=""int"">0</Timestamp><DateUtc dt:dt=""string"">2023-07-20T14:06:42Z</DateUtc></StartTime><FrequencyChanges><FrequencyChange><Frequency dt:dt=""r8"">10000000</Frequency><Timestamp dt:dt=""r8"">2378598381965</Timestamp><Current dt:dt=""r8"">0</Current><DateUtc dt:dt=""string"">2023-07-20T14:06:42Z</DateUtc></FrequencyChange></FrequencyChanges></Clock>\n",2.0.10.252,2.0.10.356,2.0.10.356,Professional,1.0.0.1
Init1,,List9,,,2417,3,0,,600,3,200,,,,,,,,,,,,,,,,,,,,,,,1,1,1,,,,,,,,,,,,,,,,,,,,,,DelayDiscountingTitrated Backup1,07-20-2023,10:06:42,7/20/2023 2:06:42 PM,3009,1,19,DelayDiscountingTitrated Backup1-3009-1,-811525653,1,60.018,"<?xml version=""1.0""?>\n<Clock xmlns:dt=""urn:schemas-microsoft-com:datatypes""><Description dt:dt=""string"">E-Prime Primary Realtime Clock</Description><StartTime><Timestamp dt:dt=""int"">0</Timestamp><DateUtc dt:dt=""string"">2023-07-20T14:06:42Z</DateUtc></StartTime><FrequencyChanges><FrequencyChange><Frequency dt:dt=""r8"">10000000</Frequency><Timestamp dt:dt=""r8"">2378598381965</Timestamp><Current dt:dt=""r8"">0</Current><DateUtc dt:dt=""string"">2023-07-20T14:06:42Z</DateUtc></FrequencyChange></FrequencyChanges></Clock>\n",2.0.10.252,2.0.10.356,2.0.10.356,Professional,1.0.0.1
Proc1,,List9,,,,,,,800,3,600,600,743,3,0,,200,,,,,,,,,,,,,,,,,2,1,2,,,,,,,,,,,,,,,,,,,,,,DelayDiscountingTitrated Backup1,07-20-2023,10:06:42,7/20/2023 2:06:42 PM,3009,1,19,DelayDiscountingTitrated Backup1-3009-1,-811525653,1,60.018,"<?xml version=""1.0""?>\n<Clock xmlns:dt=""urn:schemas-microsoft-com:datatypes""><Description dt:dt=""string"">E-Prime Primary Realtime Clock</Description><StartTime><Timestamp dt:dt=""int"">0</Timestamp><DateUtc dt:dt=""string"">2023-07-20T14:06:42Z</DateUtc></StartTime><FrequencyChanges><FrequencyChange><Frequency dt:dt=""r8"">10000000</Frequency><Timestamp dt:dt=""r8"">2378598381965</Timestamp><Current dt:dt=""r8"">0</Current><DateUtc dt:dt=""string"">2023-07-20T14:06:42Z</DateUtc></FrequencyChange></FrequencyChanges></Clock>\n",2.0.10.252,2.0.10.356,2.0.10.356,Professional,1.0.0.1
Proc1,,List9,,,,,,,900,3,800,800,568,3,0,,100,,,,,,,,,,,,,,,,,3,1,3,,,,,,,,,,,,,,,,,,,,,,DelayDiscountingTitrated Backup1,07-20-2023,10:06:42,7/20/2023 2:06:42 PM,3009,1,19,DelayDiscountingTitrated Backup1-3009-1,-811525653,1,60.018,"<?xml version=""1.0""?>\n<Clock xmlns:dt=""urn:schemas-microsoft-com:datatypes""><Description dt:dt=""string"">E-Prime Primary Realtime Clock</Description><StartTime><Timestamp dt:dt=""int"">0</Timestamp><DateUtc dt:dt=""string"">2023-07-20T14:06:42Z</DateUtc></StartTime><FrequencyChanges><FrequencyChange><Frequency dt:dt=""r8"">10000000</Frequency><Timestamp dt:dt=""r8"">2378598381965</Timestamp><Current dt:dt=""r8"">0</Current><DateUtc dt:dt=""string"">2023-07-20T14:06:42Z</DateUtc></FrequencyChange></FrequencyChanges></Clock>\n",2.0.10.252,2.0.10.356,2.0.10.356,Professional,1.0.0.1
Proc1,,List9,,,,,,,950,3,900,900,1575,3,0,,50,,,,,,,,,,,,,,,,,4,1,4,,,,,,,,,,,,,,,,,,,,,,DelayDiscountingTitrated Backup1,07-20-2023,10:06:42,7/20/2023 2:06:42 PM,3009,1,19,DelayDiscountingTitrated Backup1-3009-1,-811525653,1,60.018,"<?xml version=""1.0""?>\n<Clock xmlns:dt=""urn:schemas-microsoft-com:datatypes""><Description dt:dt=""string"">E-Prime Primary Realtime Clock</Description><StartTime><Timestamp dt:dt=""int"">0</Timestamp><DateUtc dt:dt=""string"">2023-07-20T14:06:42Z</DateUtc></StartTime><FrequencyChanges><FrequencyChange><Frequency dt:dt=""r8"">10000000</Frequency><Timestamp dt:dt=""r8"">2378598381965</Timestamp><Current dt:dt=""r8"">0</Current><DateUtc dt:dt=""string"">2023-07-20T14:06:42Z</DateUtc></FrequencyChange></FrequencyChanges></Clock>\n",2.0.10.252,2.0.10.356,2.0.10.356,Professional,1.0.0.1
Proc1,,List9,,,,,,,925,1,950,950,1168,1,0,,25,,,,,,,,,,,,,,,,,5,1,5,,,,,,,,,,,,,,,,,,,,,,DelayDiscountingTitrated Backup1,07-20-2023,10:06:42,7/20/2023 2:06:42 PM,3009,1,19,DelayDiscountingTitrated Backup1-3009-1,-811525653,1,60.018,"<?xml version=""1.0""?>\n<Clock xmlns:dt=""urn:schemas-microsoft-com:datatypes""><Description dt:dt=""string"">E-Prime Primary Realtime Clock</Description><StartTime><Timestamp dt:dt=""int"">0</Timestamp><DateUtc dt:dt=""string"">2023-07-20T14:06:42Z</DateUtc></StartTime><FrequencyChanges><FrequencyChange><Frequency dt:dt=""r8"">10000000</Frequency><Timestamp dt:dt=""r8"">2378598381965</Timestamp><Current dt:dt=""r8"">0</Current><DateUtc dt:dt=""string"">2023-07-20T14:06:42Z</DateUtc></FrequencyChange></FrequencyChanges></Clock>\n",2.0.10.252,2.0.10.356,2.0.10.356,Professional,1.0.0.1
Proc1,,List9,,,,,,,937,3,925,925,1984,3,0,,12,,,,,,,,,,,,,,,,,6,1,6,,,,,,,,,,,,,,,,,,,,,,DelayDiscountingTitrated Backup1,07-20-2023,10:06:42,7/20/2023 2:06:42 PM,3009,1,19,DelayDiscountingTitrated Backup1-3009-1,-811525653,1,60.018,"<?xml version=""1.0""?>\n<Clock xmlns:dt=""urn:schemas-microsoft-com:datatypes""><Description dt:dt=""string"">E-Prime Primary Realtime Clock</Description><StartTime><Timestamp dt:dt=""int"">0</Timestamp><DateUtc dt:dt=""string"">2023-07-20T14:06:42Z</DateUtc></StartTime><FrequencyChanges><FrequencyChange><Frequency dt:dt=""r8"">10000000</Frequency><Timestamp dt:dt=""r8"">2378598381965</Timestamp><Current dt:dt=""r8"">0</Current><DateUtc dt:dt=""string"">2023-07-20T14:06:42Z</DateUtc></FrequencyChange></FrequencyChanges></Clock>\n",2.0.10.252,2.0.10.356,2.0.10.356,Professional,1.0.0.1
Proc1,,List9,,,,,,,943,3,937,937,1383,3,0,,6,,,,,,,,,,,,,,,,,7,1,7,,,,,,,,,,,,,,,,,,,,,,DelayDiscountingTitrated Backup1,07-20-2023,10:06:42,7/20/2023 2:06:42 PM,3009,1,19,DelayDiscountingTitrated Backup1-3009-1,-811525653,1,60.018,"<?xml version=""1.0""?>\n<Clock xmlns:dt=""urn:schemas-microsoft-com:datatypes""><Description dt:dt=""string"">E-Prime Primary Realtime Clock</Description><StartTime><Timestamp dt:dt=""int"">0</Timestamp><DateUtc dt:dt=""string"">2023-07-20T14:06:42Z</DateUtc></StartTime><FrequencyChanges><FrequencyChange><Frequency dt:dt=""r8"">10000000</Frequency><Timestamp dt:dt=""r8"">2378598381965</Timestamp><Current dt:dt=""r8"">0</Current><DateUtc dt:dt=""string"">2023-07-20T14:06:42Z</DateUtc></FrequencyChange></FrequencyChanges></Clock>\n",2.0.10.252,2.0.10.356,2.0.10.356,Professional,1.0.0.1
Proc1,,List9,,,,,,,940,1,943,943,1151,1,0,,3,,,,,,,,,,,,,,,,,8,1,8,,,,,,,,,,,,,,,,,,,,,,DelayDiscountingTitrated Backup1,07-20-2023,10:06:42,7/20/2023 2:06:42 PM,3009,1,19,DelayDiscountingTitrated Backup1-3009-1,-811525653,1,60.018,"<?xml version=""1.0""?>\n<Clock xmlns:dt=""urn:schemas-microsoft-com:datatypes""><Description dt:dt=""string"">E-Prime Primary Realtime Clock</Description><StartTime><Timestamp dt:dt=""int"">0</Timestamp><DateUtc dt:dt=""string"">2023-07-20T14:06:42Z</DateUtc></StartTime><FrequencyChanges><FrequencyChange><Frequency dt:dt=""r8"">10000000</Frequency><Timestamp dt:dt=""r8"">2378598381965</Timestamp><Current dt:dt=""r8"">0</Current><DateUtc dt:dt=""string"">2023-07-20T14:06:42Z</DateUtc></FrequencyChange></FrequencyChanges></Clock>\n",2.0.10.252,2.0.10.356,2.0.10.356,Professional,1.0.0.1
Proc1,,List9,,,,,,,938,1,940,940,2639,1,0,,2,,,,,,,,,,,,,,,,,9,1,9,,,,,,,,,,,,,,,,,,,,,,DelayDiscountingTitrated Backup1,07-20-2023,10:06:42,7/20/2023 2:06:42 PM,3009,1,19,DelayDiscountingTitrated Backup1-3009-1,-811525653,1,60.018,"<?xml version=""1.0""?>\n<Clock xmlns:dt=""urn:schemas-microsoft-com:datatypes""><Description dt:dt=""string"">E-Prime Primary Realtime Clock</Description><StartTime><Timestamp dt:dt=""int"">0</Timestamp><DateUtc dt:dt=""string"">2023-07-20T14:06:42Z</DateUtc></StartTime><FrequencyChanges><FrequencyChange><Frequency dt:dt=""r8"">10000000</Frequency><Timestamp dt:dt=""r8"">2378598381965</Timestamp><Current dt:dt=""r8"">0</Current><DateUtc dt:dt=""string"">2023-07-20T14:06:42Z</DateUtc></FrequencyChange></FrequencyChanges></Clock>\n",2.0.10.252,2.0.10.356,2.0.10.356,Professional,1.0.0.1
Proc1,,List9,,,,,,,939,3,938,938,1117,3,0,,1,,,,,,,,,,,,,,,,,10,1,10,,,,,,,,,,,,,,,,,,,,,,DelayDiscountingTitrated Backup1,07-20-2023,10:06:42,7/20/2023 2:06:42 PM,3009,1,19,DelayDiscountingTitrated Backup1-3009-1,-811525653,1,60.018,"<?xml version=""1.0""?>\n<Clock xmlns:dt=""urn:schemas-microsoft-com:datatypes""><Description dt:dt=""string"">E-Prime Primary Realtime Clock</Description><StartTime><Timestamp dt:dt=""int"">0</Timestamp><DateUtc dt:dt=""string"">2023-07-20T14:06:42Z</DateUtc></StartTime><FrequencyChanges><FrequencyChange><Frequency dt:dt=""r8"">10000000</Frequency><Timestamp dt:dt=""r8"">2378598381965</Timestamp><Current dt:dt=""r8"">0</Current><DateUtc dt:dt=""string"">2023-07-20T14:06:42Z</DateUtc></FrequencyChange></FrequencyChanges></Clock>\n",2.0.10.252,2.0.10.356,2.0.10.356,Professional,1.0.0.1
Proc1,,List9,,,,,,,939,3,938,939,1175,3,0,,,,,,,,,,,,,,,,,,,11,1,11,,,,,,,,,,,,,,,,,,,,,,DelayDiscountingTitrated Backup1,07-20-2023,10:06:42,7/20/2023 2:06:42 PM,3009,1,19,DelayDiscountingTitrated Backup1-3009-1,-811525653,1,60.018,"<?xml version=""1.0""?>\n<Clock xmlns:dt=""urn:schemas-microsoft-com:datatypes""><Description dt:dt=""string"">E-Prime Primary Realtime Clock</Description><StartTime><Timestamp dt:dt=""int"">0</Timestamp><DateUtc dt:dt=""string"">2023-07-20T14:06:42Z</DateUtc></StartTime><FrequencyChanges><FrequencyChange><Frequency dt:dt=""r8"">10000000</Frequency><Timestamp dt:dt=""r8"">2378598381965</Timestamp><Current dt:dt=""r8"">0</Current><DateUtc dt:dt=""string"">2023-07-20T14:06:42Z</DateUtc></FrequencyChange></FrequencyChanges></Clock>\n",2.0.10.252,2.0.10.356,2.0.10.356,Professional,1.0.0.1
discount1,,List4,,,,,,,,,,,,,,,,200,1 month,,30,,,,,,,,,,,,,,,,1,1,1,,,,,,,,,,,,,,,,,,,DelayDiscountingTitrated Backup1,07-20-2023,10:06:42,7/20/2023 2:06:42 PM,3009,1,19,DelayDiscountingTitrated Backup1-3009-1,-811525653,1,60.018,"<?xml version=""1.0""?>\n<Clock xmlns:dt=""urn:schemas-microsoft-com:datatypes""><Description dt:dt=""string"">E-Prime Primary Realtime Clock</Description><StartTime><Timestamp dt:dt=""int"">0</Timestamp><DateUtc dt:dt=""string"">2023-07-20T14:06:42Z</DateUtc></StartTime><FrequencyChanges><FrequencyChange><Frequency dt:dt=""r8"">10000000</Frequency><Timestamp dt:dt=""r8"">2378598381965</Timestamp><Current dt:dt=""r8"">0</Current><DateUtc dt:dt=""string"">2023-07-20T14:06:42Z</DateUtc></FrequencyChange></FrequencyChanges></Clock>\n",2.0.10.252,2.0.10.356,2.0.10.356,Professional,1.0.0.1
onemthproc,,List1,,,,,,,,,,,,,,,,,,,,,,2,1,3,3,,,,,,,,,,,,,,,,,,,,,,,,,,,,,,,DelayDiscountingTitrated Backup1,07-20-2023,10:06:42,7/20/2023 2:06:42 PM,3009,1,19,DelayDiscountingTitrated Backup1-3009-1,-811525653,1,60.018,"<?xml version=""1.0""?>\n<Clock xmlns:dt=""urn:schemas-microsoft-com:datatypes""><Description dt:dt=""string"">E-Prime Primary Realtime Clock</Description><StartTime><Timestamp dt:dt=""int"">0</Timestamp><DateUtc dt:dt=""string"">2023-07-20T14:06:42Z</DateUtc></StartTime><FrequencyChanges><FrequencyChange><Frequency dt:dt=""r8"">10000000</Frequency><Timestamp dt:dt=""r8"">2378598381965</Timestamp><Current dt:dt=""r8"">0</Current><DateUtc dt:dt=""string"">2023-07-20T14:06:42Z</DateUtc></FrequencyChange></FrequencyChanges></Clock>\n",2.0.10.252,2.0.10.356,2.0.10.356,Professional,1.0.0.1
Init2,,List10,,,2457,1,0,,400,1,800,,,,,,,,,,,,,,,,,,,,,,,,,,,,,1,1,1,,,,,,,,,,,,,,,,DelayDiscountingTitrated Backup1,07-20-2023,10:06:42,7/20/2023 2:06:42 PM,3009,1,19,DelayDiscountingTitrated Backup1-3009-1,-811525653,1,60.018,"<?xml version=""1.0""?>\n<Clock xmlns:dt=""urn:schemas-microsoft-com:datatypes""><Description dt:dt=""string"">E-Prime Primary Realtime Clock</Description><StartTime><Timestamp dt:dt=""int"">0</Timestamp><DateUtc dt:dt=""string"">2023-07-20T14:06:42Z</DateUtc></StartTime><FrequencyChanges><FrequencyChange><Frequency dt:dt=""r8"">10000000</Frequency><Timestamp dt:dt=""r8"">2378598381965</Timestamp><Current dt:dt=""r8"">0</Current><DateUtc dt:dt=""string"">2023-07-20T14:06:42Z</DateUtc></FrequencyChange></FrequencyChanges></Clock>\n",2.0.10.252,2.0.10.356,2.0.10.356,Professional,1.0.0.1
Proc2,,List10,,,,,,,600,3,400,400,4998,3,0,,200,,,,,,,,,,,,,,,,,,,,,,,2,1,2,,,,,,,,,,,,,,,,DelayDiscountingTitrated Backup1,07-20-2023,10:06:42,7/20/2023 2:06:42 PM,3009,1,19,DelayDiscountingTitrated Backup1-3009-1,-811525653,1,60.018,"<?xml version=""1.0""?>\n<Clock xmlns:dt=""urn:schemas-microsoft-com:datatypes""><Description dt:dt=""string"">E-Prime Primary Realtime Clock</Description><StartTime><Timestamp dt:dt=""int"">0</Timestamp><DateUtc dt:dt=""string"">2023-07-20T14:06:42Z</DateUtc></StartTime><FrequencyChanges><FrequencyChange><Frequency dt:dt=""r8"">10000000</Frequency><Timestamp dt:dt=""r8"">2378598381965</Timestamp><Current dt:dt=""r8"">0</Current><DateUtc dt:dt=""string"">2023-07-20T14:06:42Z</DateUtc></FrequencyChange></FrequencyChanges></Clock>\n",2.0.10.252,2.0.10.356,2.0.10.356,Professional,1.0.0.1
Proc2,,List10,,,,,,,700,3,600,600,1566,3,0,,100,,,,,,,,,,,,,,,,,,,,,,,3,1,3,,,,,,,,,,,,,,,,DelayDiscountingTitrated Backup1,07-20-2023,10:06:42,7/20/2023 2:06:42 PM,3009,1,19,DelayDiscountingTitrated Backup1-3009-1,-811525653,1,60.018,"<?xml version=""1.0""?>\n<Clock xmlns:dt=""urn:schemas-microsoft-com:datatypes""><Description dt:dt=""string"">E-Prime Primary Realtime Clock</Description><StartTime><Timestamp dt:dt=""int"">0</Timestamp><DateUtc dt:dt=""string"">2023-07-20T14:06:42Z</DateUtc></StartTime><FrequencyChanges><FrequencyChange><Frequency dt:dt=""r8"">10000000</Frequency><Timestamp dt:dt=""r8"">2378598381965</Timestamp><Current dt:dt=""r8"">0</Current><DateUtc dt:dt=""string"">2023-07-20T14:06:42Z</DateUtc></FrequencyChange></FrequencyChanges></Clock>\n",2.0.10.252,2.0.10.356,2.0.10.356,Professional,1.0.0.1
Proc2,,List10,,,,,,,650,1,700,700,1542,1,0,,50,,,,,,,,,,,,,,,,,,,,,,,4,1,4,,,,,,,,,,,,,,,,DelayDiscountingTitrated Backup1,07-20-2023,10:06:42,7/20/2023 2:06:42 PM,3009,1,19,DelayDiscountingTitrated Backup1-3009-1,-811525653,1,60.018,"<?xml version=""1.0""?>\n<Clock xmlns:dt=""urn:schemas-microsoft-com:datatypes""><Description dt:dt=""string"">E-Prime Primary Realtime Clock</Description><StartTime><Timestamp dt:dt=""int"">0</Timestamp><DateUtc dt:dt=""string"">2023-07-20T14:06:42Z</DateUtc></StartTime><FrequencyChanges><FrequencyChange><Frequency dt:dt=""r8"">10000000</Frequency><Timestamp dt:dt=""r8"">2378598381965</Timestamp><Current dt:dt=""r8"">0</Current><DateUtc dt:dt=""string"">2023-07-20T14:06:42Z</DateUtc></FrequencyChange></FrequencyChanges></Clock>\n",2.0.10.252,2.0.10.356,2.0.10.356,Professional,1.0.0.1
Proc2,,List10,,,,,,,675,3,650,650,1223,3,0,,25,,,,,,,,,,,,,,,,,,,,,,,5,1,5,,,,,,,,,,,,,,,,DelayDiscountingTitrated Backup1,07-20-2023,10:06:42,7/20/2023 2:06:42 PM,3009,1,19,DelayDiscountingTitrated Backup1-3009-1,-811525653,1,60.018,"<?xml version=""1.0""?>\n<Clock xmlns:dt=""urn:schemas-microsoft-com:datatypes""><Description dt:dt=""string"">E-Prime Primary Realtime Clock</Description><StartTime><Timestamp dt:dt=""int"">0</Timestamp><DateUtc dt:dt=""string"">2023-07-20T14:06:42Z</DateUtc></StartTime><FrequencyChanges><FrequencyChange><Frequency dt:dt=""r8"">10000000</Frequency><Timestamp dt:dt=""r8"">2378598381965</Timestamp><Current dt:dt=""r8"">0</Current><DateUtc dt:dt=""string"">2023-07-20T14:06:42Z</DateUtc></FrequencyChange></FrequencyChanges></Clock>\n",2.0.10.252,2.0.10.356,2.0.10.356,Professional,1.0.0.1
Proc2,,List10,,,,,,,687,3,675,675,1205,3,0,,12,,,,,,,,,,,,,,,,,,,,,,,6,1,6,,,,,,,,,,,,,,,,DelayDiscountingTitrated Backup1,07-20-2023,10:06:42,7/20/2023 2:06:42 PM,3009,1,19,DelayDiscountingTitrated Backup1-3009-1,-811525653,1,60.018,"<?xml version=""1.0""?>\n<Clock xmlns:dt=""urn:schemas-microsoft-com:datatypes""><Description dt:dt=""string"">E-Prime Primary Realtime Clock</Description><StartTime><Timestamp dt:dt=""int"">0</Timestamp><DateUtc dt:dt=""string"">2023-07-20T14:06:42Z</DateUtc></StartTime><FrequencyChanges><FrequencyChange><Frequency dt:dt=""r8"">10000000</Frequency><Timestamp dt:dt=""r8"">2378598381965</Timestamp><Current dt:dt=""r8"">0</Current><DateUtc dt:dt=""string"">2023-07-20T14:06:42Z</DateUtc></FrequencyChange></FrequencyChanges></Clock>\n",2.0.10.252,2.0.10.356,2.0.10.356,Professional,1.0.0.1
Proc2,,List10,,,,,,,693,3,687,687,644,3,0,,6,,,,,,,,,,,,,,,,,,,,,,,7,1,7,,,,,,,,,,,,,,,,DelayDiscountingTitrated Backup1,07-20-2023,10:06:42,7/20/2023 2:06:42 PM,3009,1,19,DelayDiscountingTitrated Backup1-3009-1,-811525653,1,60.018,"<?xml version=""1.0""?>\n<Clock xmlns:dt=""urn:schemas-microsoft-com:datatypes""><Description dt:dt=""string"">E-Prime Primary Realtime Clock</Description><StartTime><Timestamp dt:dt=""int"">0</Timestamp><DateUtc dt:dt=""string"">2023-07-20T14:06:42Z</DateUtc></StartTime><FrequencyChanges><FrequencyChange><Frequency dt:dt=""r8"">10000000</Frequency><Timestamp dt:dt=""r8"">2378598381965</Timestamp><Current dt:dt=""r8"">0</Current><DateUtc dt:dt=""string"">2023-07-20T14:06:42Z</DateUtc></FrequencyChange></FrequencyChanges></Clock>\n",2.0.10.252,2.0.10.356,2.0.10.356,Professional,1.0.0.1
Proc2,,List10,,,,,,,696,3,693,693,681,3,0,,3,,,,,,,,,,,,,,,,,,,,,,,8,1,8,,,,,,,,,,,,,,,,DelayDiscountingTitrated Backup1,07-20-2023,10:06:42,7/20/2023 2:06:42 PM,3009,1,19,DelayDiscountingTitrated Backup1-3009-1,-811525653,1,60.018,"<?xml version=""1.0""?>\n<Clock xmlns:dt=""urn:schemas-microsoft-com:datatypes""><Description dt:dt=""string"">E-Prime Primary Realtime Clock</Description><StartTime><Timestamp dt:dt=""int"">0</Timestamp><DateUtc dt:dt=""string"">2023-07-20T14:06:42Z</DateUtc></StartTime><FrequencyChanges><FrequencyChange><Frequency dt:dt=""r8"">10000000</Frequency><Timestamp dt:dt=""r8"">2378598381965</Timestamp><Current dt:dt=""r8"">0</Current><DateUtc dt:dt=""string"">2023-07-20T14:06:42Z</DateUtc></FrequencyChange></FrequencyChanges></Clock>\n",2.0.10.252,2.0.10.356,2.0.10.356,Professional,1.0.0.1
Proc2,,List10,,,,,,,698,3,696,696,1324,3,0,,2,,,,,,,,,,,,,,,,,,,,,,,9,1,9,,,,,,,,,,,,,,,,DelayDiscountingTitrated Backup1,07-20-2023,10:06:42,7/20/2023 2:06:42 PM,3009,1,19,DelayDiscountingTitrated Backup1-3009-1,-811525653,1,60.018,"<?xml version=""1.0""?>\n<Clock xmlns:dt=""urn:schemas-microsoft-com:datatypes""><Description dt:dt=""string"">E-Prime Primary Realtime Clock</Description><StartTime><Timestamp dt:dt=""int"">0</Timestamp><DateUtc dt:dt=""string"">2023-07-20T14:06:42Z</DateUtc></StartTime><FrequencyChanges><FrequencyChange><Frequency dt:dt=""r8"">10000000</Frequency><Timestamp dt:dt=""r8"">2378598381965</Timestamp><Current dt:dt=""r8"">0</Current><DateUtc dt:dt=""string"">2023-07-20T14:06:42Z</DateUtc></FrequencyChange></FrequencyChanges></Clock>\n",2.0.10.252,2.0.10.356,2.0.10.356,Professional,1.0.0.1
Proc2,,List10,,,,,,,699,3,698,698,910,3,0,,1,,,,,,,,,,,,,,,,,,,,,,,10,1,10,,,,,,,,,,,,,,,,DelayDiscountingTitrated Backup1,07-20-2023,10:06:42,7/20/2023 2:06:42 PM,3009,1,19,DelayDiscountingTitrated Backup1-3009-1,-811525653,1,60.018,"<?xml version=""1.0""?>\n<Clock xmlns:dt=""urn:schemas-microsoft-com:datatypes""><Description dt:dt=""string"">E-Prime Primary Realtime Clock</Description><StartTime><Timestamp dt:dt=""int"">0</Timestamp><DateUtc dt:dt=""string"">2023-07-20T14:06:42Z</DateUtc></StartTime><FrequencyChanges><FrequencyChange><Frequency dt:dt=""r8"">10000000</Frequency><Timestamp dt:dt=""r8"">2378598381965</Timestamp><Current dt:dt=""r8"">0</Current><DateUtc dt:dt=""string"">2023-07-20T14:06:42Z</DateUtc></FrequencyChange></FrequencyChanges></Clock>\n",2.0.10.252,2.0.10.356,2.0.10.356,Professional,1.0.0.1
Proc2,,List10,,,,,,,699,3,698,699,816,3,0,,,,,,,,,,,,,,,,,,,,,,,,,11,1,11,,,,,,,,,,,,,,,,DelayDiscountingTitrated Backup1,07-20-2023,10:06:42,7/20/2023 2:06:42 PM,3009,1,19,DelayDiscountingTitrated Backup1-3009-1,-811525653,1,60.018,"<?xml version=""1.0""?>\n<Clock xmlns:dt=""urn:schemas-microsoft-com:datatypes""><Description dt:dt=""string"">E-Prime Primary Realtime Clock</Description><StartTime><Timestamp dt:dt=""int"">0</Timestamp><DateUtc dt:dt=""string"">2023-07-20T14:06:42Z</DateUtc></StartTime><FrequencyChanges><FrequencyChange><Frequency dt:dt=""r8"">10000000</Frequency><Timestamp dt:dt=""r8"">2378598381965</Timestamp><Current dt:dt=""r8"">0</Current><DateUtc dt:dt=""string"">2023-07-20T14:06:42Z</DateUtc></FrequencyChange></FrequencyChanges></Clock>\n",2.0.10.252,2.0.10.356,2.0.10.356,Professional,1.0.0.1
discount2,,List5,,,,,,,,,,,,,,,,800,6 month,,180,,,,,,,,,,,,,,,,,,,,,,3,1,1,,,,,,,,,,,,,DelayDiscountingTitrated Backup1,07-20-2023,10:06:42,7/20/2023 2:06:42 PM,3009,1,19,DelayDiscountingTitrated Backup1-3009-1,-811525653,1,60.018,"<?xml version=""1.0""?>\n<Clock xmlns:dt=""urn:schemas-microsoft-com:datatypes""><Description dt:dt=""string"">E-Prime Primary Realtime Clock</Description><StartTime><Timestamp dt:dt=""int"">0</Timestamp><DateUtc dt:dt=""string"">2023-07-20T14:06:42Z</DateUtc></StartTime><FrequencyChanges><FrequencyChange><Frequency dt:dt=""r8"">10000000</Frequency><Timestamp dt:dt=""r8"">2378598381965</Timestamp><Current dt:dt=""r8"">0</Current><DateUtc dt:dt=""string"">2023-07-20T14:06:42Z</DateUtc></FrequencyChange></FrequencyChanges></Clock>\n",2.0.10.252,2.0.10.356,2.0.10.356,Professional,1.0.0.1
sixmthproc,,List1,,,,,,,,,,,,,,,,,,,,,,3,1,4,4,,,,,,,,,,,,,,,,,,,,,,,,,,,,,,,DelayDiscountingTitrated Backup1,07-20-2023,10:06:42,7/20/2023 2:06:42 PM,3009,1,19,DelayDiscountingTitrated Backup1-3009-1,-811525653,1,60.018,"<?xml version=""1.0""?>\n<Clock xmlns:dt=""urn:schemas-microsoft-com:datatypes""><Description dt:dt=""string"">E-Prime Primary Realtime Clock</Description><StartTime><Timestamp dt:dt=""int"">0</Timestamp><DateUtc dt:dt=""string"">2023-07-20T14:06:42Z</DateUtc></StartTime><FrequencyChanges><FrequencyChange><Frequency dt:dt=""r8"">10000000</Frequency><Timestamp dt:dt=""r8"">2378598381965</Timestamp><Current dt:dt=""r8"">0</Current><DateUtc dt:dt=""string"">2023-07-20T14:06:42Z</DateUtc></FrequencyChange></FrequencyChanges></Clock>\n",2.0.10.252,2.0.10.356,2.0.10.356,Professional,1.0.0.1
Init5,,List13,,,3607,1,0,,400,1,800,,,,,,,,,,,,,,,,,,,,,,,,,,,,,,,,,,,1,1,1,,,,,,,,,,DelayDiscountingTitrated Backup1,07-20-2023,10:06:42,7/20/2023 2:06:42 PM,3009,1,19,DelayDiscountingTitrated Backup1-3009-1,-811525653,1,60.018,"<?xml version=""1.0""?>\n<Clock xmlns:dt=""urn:schemas-microsoft-com:datatypes""><Description dt:dt=""string"">E-Prime Primary Realtime Clock</Description><StartTime><Timestamp dt:dt=""int"">0</Timestamp><DateUtc dt:dt=""string"">2023-07-20T14:06:42Z</DateUtc></StartTime><FrequencyChanges><FrequencyChange><Frequency dt:dt=""r8"">10000000</Frequency><Timestamp dt:dt=""r8"">2378598381965</Timestamp><Current dt:dt=""r8"">0</Current><DateUtc dt:dt=""string"">2023-07-20T14:06:42Z</DateUtc></FrequencyChange></FrequencyChanges></Clock>\n",2.0.10.252,2.0.10.356,2.0.10.356,Professional,1.0.0.1
Proc5,,List13,,,,,,,200,1,400,400,1614,1,0,,200,,,,,,,,,,,,,,,,,,,,,,,,,,,,,2,1,2,,,,,,,,,,DelayDiscountingTitrated Backup1,07-20-2023,10:06:42,7/20/2023 2:06:42 PM,3009,1,19,DelayDiscountingTitrated Backup1-3009-1,-811525653,1,60.018,"<?xml version=""1.0""?>\n<Clock xmlns:dt=""urn:schemas-microsoft-com:datatypes""><Description dt:dt=""string"">E-Prime Primary Realtime Clock</Description><StartTime><Timestamp dt:dt=""int"">0</Timestamp><DateUtc dt:dt=""string"">2023-07-20T14:06:42Z</DateUtc></StartTime><FrequencyChanges><FrequencyChange><Frequency dt:dt=""r8"">10000000</Frequency><Timestamp dt:dt=""r8"">2378598381965</Timestamp><Current dt:dt=""r8"">0</Current><DateUtc dt:dt=""string"">2023-07-20T14:06:42Z</DateUtc></FrequencyChange></FrequencyChanges></Clock>\n",2.0.10.252,2.0.10.356,2.0.10.356,Professional,1.0.0.1
Proc5,,List13,,,,,,,100,1,200,200,348,1,0,,100,,,,,,,,,,,,,,,,,,,,,,,,,,,,,3,1,3,,,,,,,,,,DelayDiscountingTitrated Backup1,07-20-2023,10:06:42,7/20/2023 2:06:42 PM,3009,1,19,DelayDiscountingTitrated Backup1-3009-1,-811525653,1,60.018,"<?xml version=""1.0""?>\n<Clock xmlns:dt=""urn:schemas-microsoft-com:datatypes""><Description dt:dt=""string"">E-Prime Primary Realtime Clock</Description><StartTime><Timestamp dt:dt=""int"">0</Timestamp><DateUtc dt:dt=""string"">2023-07-20T14:06:42Z</DateUtc></StartTime><FrequencyChanges><FrequencyChange><Frequency dt:dt=""r8"">10000000</Frequency><Timestamp dt:dt=""r8"">2378598381965</Timestamp><Current dt:dt=""r8"">0</Current><DateUtc dt:dt=""string"">2023-07-20T14:06:42Z</DateUtc></FrequencyChange></FrequencyChanges></Clock>\n",2.0.10.252,2.0.10.356,2.0.10.356,Professional,1.0.0.1
Proc5,,List13,,,,,,,50,1,100,100,357,1,0,,50,,,,,,,,,,,,,,,,,,,,,,,,,,,,,4,1,4,,,,,,,,,,DelayDiscountingTitrated Backup1,07-20-2023,10:06:42,7/20/2023 2:06:42 PM,3009,1,19,DelayDiscountingTitrated Backup1-3009-1,-811525653,1,60.018,"<?xml version=""1.0""?>\n<Clock xmlns:dt=""urn:schemas-microsoft-com:datatypes""><Description dt:dt=""string"">E-Prime Primary Realtime Clock</Description><StartTime><Timestamp dt:dt=""int"">0</Timestamp><DateUtc dt:dt=""string"">2023-07-20T14:06:42Z</DateUtc></StartTime><FrequencyChanges><FrequencyChange><Frequency dt:dt=""r8"">10000000</Frequency><Timestamp dt:dt=""r8"">2378598381965</Timestamp><Current dt:dt=""r8"">0</Current><DateUtc dt:dt=""string"">2023-07-20T14:06:42Z</DateUtc></FrequencyChange></FrequencyChanges></Clock>\n",2.0.10.252,2.0.10.356,2.0.10.356,Professional,1.0.0.1
Proc5,,List13,,,,,,,25,1,50,50,453,1,0,,25,,,,,,,,,,,,,,,,,,,,,,,,,,,,,5,1,5,,,,,,,,,,DelayDiscountingTitrated Backup1,07-20-2023,10:06:42,7/20/2023 2:06:42 PM,3009,1,19,DelayDiscountingTitrated Backup1-3009-1,-811525653,1,60.018,"<?xml version=""1.0""?>\n<Clock xmlns:dt=""urn:schemas-microsoft-com:datatypes""><Description dt:dt=""string"">E-Prime Primary Realtime Clock</Description><StartTime><Timestamp dt:dt=""int"">0</Timestamp><DateUtc dt:dt=""string"">2023-07-20T14:06:42Z</DateUtc></StartTime><FrequencyChanges><FrequencyChange><Frequency dt:dt=""r8"">10000000</Frequency><Timestamp dt:dt=""r8"">2378598381965</Timestamp><Current dt:dt=""r8"">0</Current><DateUtc dt:dt=""string"">2023-07-20T14:06:42Z</DateUtc></FrequencyChange></FrequencyChanges></Clock>\n",2.0.10.252,2.0.10.356,2.0.10.356,Professional,1.0.0.1
Proc5,,List13,,,,,,,13,1,25,25,610,1,0,,12,,,,,,,,,,,,,,,,,,,,,,,,,,,,,6,1,6,,,,,,,,,,DelayDiscountingTitrated Backup1,07-20-2023,10:06:42,7/20/2023 2:06:42 PM,3009,1,19,DelayDiscountingTitrated Backup1-3009-1,-811525653,1,60.018,"<?xml version=""1.0""?>\n<Clock xmlns:dt=""urn:schemas-microsoft-com:datatypes""><Description dt:dt=""string"">E-Prime Primary Realtime Clock</Description><StartTime><Timestamp dt:dt=""int"">0</Timestamp><DateUtc dt:dt=""string"">2023-07-20T14:06:42Z</DateUtc></StartTime><FrequencyChanges><FrequencyChange><Frequency dt:dt=""r8"">10000000</Frequency><Timestamp dt:dt=""r8"">2378598381965</Timestamp><Current dt:dt=""r8"">0</Current><DateUtc dt:dt=""string"">2023-07-20T14:06:42Z</DateUtc></FrequencyChange></FrequencyChanges></Clock>\n",2.0.10.252,2.0.10.356,2.0.10.356,Professional,1.0.0.1
Proc5,,List13,,,,,,,7,1,13,13,320,1,0,,6,,,,,,,,,,,,,,,,,,,,,,,,,,,,,7,1,7,,,,,,,,,,DelayDiscountingTitrated Backup1,07-20-2023,10:06:42,7/20/2023 2:06:42 PM,3009,1,19,DelayDiscountingTitrated Backup1-3009-1,-811525653,1,60.018,"<?xml version=""1.0""?>\n<Clock xmlns:dt=""urn:schemas-microsoft-com:datatypes""><Description dt:dt=""string"">E-Prime Primary Realtime Clock</Description><StartTime><Timestamp dt:dt=""int"">0</Timestamp><DateUtc dt:dt=""string"">2023-07-20T14:06:42Z</DateUtc></StartTime><FrequencyChanges><FrequencyChange><Frequency dt:dt=""r8"">10000000</Frequency><Timestamp dt:dt=""r8"">2378598381965</Timestamp><Current dt:dt=""r8"">0</Current><DateUtc dt:dt=""string"">2023-07-20T14:06:42Z</DateUtc></FrequencyChange></FrequencyChanges></Clock>\n",2.0.10.252,2.0.10.356,2.0.10.356,Professional,1.0.0.1
Proc5,,List13,,,,,,,10,3,7,7,1970,3,0,,3,,,,,,,,,,,,,,,,,,,,,,,,,,,,,8,1,8,,,,,,,,,,DelayDiscountingTitrated Backup1,07-20-2023,10:06:42,7/20/2023 2:06:42 PM,3009,1,19,DelayDiscountingTitrated Backup1-3009-1,-811525653,1,60.018,"<?xml version=""1.0""?>\n<Clock xmlns:dt=""urn:schemas-microsoft-com:datatypes""><Description dt:dt=""string"">E-Prime Primary Realtime Clock</Description><StartTime><Timestamp dt:dt=""int"">0</Timestamp><DateUtc dt:dt=""string"">2023-07-20T14:06:42Z</DateUtc></StartTime><FrequencyChanges><FrequencyChange><Frequency dt:dt=""r8"">10000000</Frequency><Timestamp dt:dt=""r8"">2378598381965</Timestamp><Current dt:dt=""r8"">0</Current><DateUtc dt:dt=""string"">2023-07-20T14:06:42Z</DateUtc></FrequencyChange></FrequencyChanges></Clock>\n",2.0.10.252,2.0.10.356,2.0.10.356,Professional,1.0.0.1
Proc5,,List13,,,,,,,8,1,10,10,1714,1,0,,2,,,,,,,,,,,,,,,,,,,,,,,,,,,,,9,1,9,,,,,,,,,,DelayDiscountingTitrated Backup1,07-20-2023,10:06:42,7/20/2023 2:06:42 PM,3009,1,19,DelayDiscountingTitrated Backup1-3009-1,-811525653,1,60.018,"<?xml version=""1.0""?>\n<Clock xmlns:dt=""urn:schemas-microsoft-com:datatypes""><Description dt:dt=""string"">E-Prime Primary Realtime Clock</Description><StartTime><Timestamp dt:dt=""int"">0</Timestamp><DateUtc dt:dt=""string"">2023-07-20T14:06:42Z</DateUtc></StartTime><FrequencyChanges><FrequencyChange><Frequency dt:dt=""r8"">10000000</Frequency><Timestamp dt:dt=""r8"">2378598381965</Timestamp><Current dt:dt=""r8"">0</Current><DateUtc dt:dt=""string"">2023-07-20T14:06:42Z</DateUtc></FrequencyChange></FrequencyChanges></Clock>\n",2.0.10.252,2.0.10.356,2.0.10.356,Professional,1.0.0.1
Proc5,,List13,,,,,,,9,3,8,8,1420,3,0,,1,,,,,,,,,,,,,,,,,,,,,,,,,,,,,10,1,10,,,,,,,,,,DelayDiscountingTitrated Backup1,07-20-2023,10:06:42,7/20/2023 2:06:42 PM,3009,1,19,DelayDiscountingTitrated Backup1-3009-1,-811525653,1,60.018,"<?xml version=""1.0""?>\n<Clock xmlns:dt=""urn:schemas-microsoft-com:datatypes""><Description dt:dt=""string"">E-Prime Primary Realtime Clock</Description><StartTime><Timestamp dt:dt=""int"">0</Timestamp><DateUtc dt:dt=""string"">2023-07-20T14:06:42Z</DateUtc></StartTime><FrequencyChanges><FrequencyChange><Frequency dt:dt=""r8"">10000000</Frequency><Timestamp dt:dt=""r8"">2378598381965</Timestamp><Current dt:dt=""r8"">0</Current><DateUtc dt:dt=""string"">2023-07-20T14:06:42Z</DateUtc></FrequencyChange></FrequencyChanges></Clock>\n",2.0.10.252,2.0.10.356,2.0.10.356,Professional,1.0.0.1
Proc5,,List13,,,,,,,9,3,8,9,754,3,0,,,,,,,,,,,,,,,,,,,,,,,,,,,,,,,11,1,11,,,,,,,,,,DelayDiscountingTitrated Backup1,07-20-2023,10:06:42,7/20/2023 2:06:42 PM,3009,1,19,DelayDiscountingTitrated Backup1-3009-1,-811525653,1,60.018,"<?xml version=""1.0""?>\n<Clock xmlns:dt=""urn:schemas-microsoft-com:datatypes""><Description dt:dt=""string"">E-Prime Primary Realtime Clock</Description><StartTime><Timestamp dt:dt=""int"">0</Timestamp><DateUtc dt:dt=""string"">2023-07-20T14:06:42Z</DateUtc></StartTime><FrequencyChanges><FrequencyChange><Frequency dt:dt=""r8"">10000000</Frequency><Timestamp dt:dt=""r8"">2378598381965</Timestamp><Current dt:dt=""r8"">0</Current><DateUtc dt:dt=""string"">2023-07-20T14:06:42Z</DateUtc></FrequencyChange></FrequencyChanges></Clock>\n",2.0.10.252,2.0.10.356,2.0.10.356,Professional,1.0.0.1
discount5,,List8,,,,,,,,,,,,,,,,800,15 years,,5475,,,,,,,,,,,,,,,,,,,,,,,,,,,,3,2,1,,,,,,,DelayDiscountingTitrated Backup1,07-20-2023,10:06:42,7/20/2023 2:06:42 PM,3009,1,19,DelayDiscountingTitrated Backup1-3009-1,-811525653,1,60.018,"<?xml version=""1.0""?>\n<Clock xmlns:dt=""urn:schemas-microsoft-com:datatypes""><Description dt:dt=""string"">E-Prime Primary Realtime Clock</Description><StartTime><Timestamp dt:dt=""int"">0</Timestamp><DateUtc dt:dt=""string"">2023-07-20T14:06:42Z</DateUtc></StartTime><FrequencyChanges><FrequencyChange><Frequency dt:dt=""r8"">10000000</Frequency><Timestamp dt:dt=""r8"">2378598381965</Timestamp><Current dt:dt=""r8"">0</Current><DateUtc dt:dt=""string"">2023-07-20T14:06:42Z</DateUtc></FrequencyChange></FrequencyChanges></Clock>\n",2.0.10.252,2.0.10.356,2.0.10.356,Professional,1.0.0.1
fifteenyearproc,,List1,,,,,,,,,,,,,,,,,,,,,,6,1,5,5,,,,,,,,,,,,,,,,,,,,,,,,,,,,,,,DelayDiscountingTitrated Backup1,07-20-2023,10:06:42,7/20/2023 2:06:42 PM,3009,1,19,DelayDiscountingTitrated Backup1-3009-1,-811525653,1,60.018,"<?xml version=""1.0""?>\n<Clock xmlns:dt=""urn:schemas-microsoft-com:datatypes""><Description dt:dt=""string"">E-Prime Primary Realtime Clock</Description><StartTime><Timestamp dt:dt=""int"">0</Timestamp><DateUtc dt:dt=""string"">2023-07-20T14:06:42Z</DateUtc></StartTime><FrequencyChanges><FrequencyChange><Frequency dt:dt=""r8"">10000000</Frequency><Timestamp dt:dt=""r8"">2378598381965</Timestamp><Current dt:dt=""r8"">0</Current><DateUtc dt:dt=""string"">2023-07-20T14:06:42Z</DateUtc></FrequencyChange></FrequencyChanges></Clock>\n",2.0.10.252,2.0.10.356,2.0.10.356,Professional,1.0.0.1
Init4,,List12,,,3975,1,0,,100,1,200,,,,,,,,,,,,,,,,,,,,,,,,,,,,,,,,,,,,,,,,,1,1,1,,,,DelayDiscountingTitrated Backup1,07-20-2023,10:06:42,7/20/2023 2:06:42 PM,3009,1,19,DelayDiscountingTitrated Backup1-3009-1,-811525653,1,60.018,"<?xml version=""1.0""?>\n<Clock xmlns:dt=""urn:schemas-microsoft-com:datatypes""><Description dt:dt=""string"">E-Prime Primary Realtime Clock</Description><StartTime><Timestamp dt:dt=""int"">0</Timestamp><DateUtc dt:dt=""string"">2023-07-20T14:06:42Z</DateUtc></StartTime><FrequencyChanges><FrequencyChange><Frequency dt:dt=""r8"">10000000</Frequency><Timestamp dt:dt=""r8"">2378598381965</Timestamp><Current dt:dt=""r8"">0</Current><DateUtc dt:dt=""string"">2023-07-20T14:06:42Z</DateUtc></FrequencyChange></FrequencyChanges></Clock>\n",2.0.10.252,2.0.10.356,2.0.10.356,Professional,1.0.0.1
Proc4,,List12,,,,,,,50,1,100,100,872,1,0,,50,,,,,,,,,,,,,,,,,,,,,,,,,,,,,,,,,,,2,1,2,,,,DelayDiscountingTitrated Backup1,07-20-2023,10:06:42,7/20/2023 2:06:42 PM,3009,1,19,DelayDiscountingTitrated Backup1-3009-1,-811525653,1,60.018,"<?xml version=""1.0""?>\n<Clock xmlns:dt=""urn:schemas-microsoft-com:datatypes""><Description dt:dt=""string"">E-Prime Primary Realtime Clock</Description><StartTime><Timestamp dt:dt=""int"">0</Timestamp><DateUtc dt:dt=""string"">2023-07-20T14:06:42Z</DateUtc></StartTime><FrequencyChanges><FrequencyChange><Frequency dt:dt=""r8"">10000000</Frequency><Timestamp dt:dt=""r8"">2378598381965</Timestamp><Current dt:dt=""r8"">0</Current><DateUtc dt:dt=""string"">2023-07-20T14:06:42Z</DateUtc></FrequencyChange></FrequencyChanges></Clock>\n",2.0.10.252,2.0.10.356,2.0.10.356,Professional,1.0.0.1
Proc4,,List12,,,,,,,75,3,50,50,1260,3,0,,25,,,,,,,,,,,,,,,,,,,,,,,,,,,,,,,,,,,3,1,3,,,,DelayDiscountingTitrated Backup1,07-20-2023,10:06:42,7/20/2023 2:06:42 PM,3009,1,19,DelayDiscountingTitrated Backup1-3009-1,-811525653,1,60.018,"<?xml version=""1.0""?>\n<Clock xmlns:dt=""urn:schemas-microsoft-com:datatypes""><Description dt:dt=""string"">E-Prime Primary Realtime Clock</Description><StartTime><Timestamp dt:dt=""int"">0</Timestamp><DateUtc dt:dt=""string"">2023-07-20T14:06:42Z</DateUtc></StartTime><FrequencyChanges><FrequencyChange><Frequency dt:dt=""r8"">10000000</Frequency><Timestamp dt:dt=""r8"">2378598381965</Timestamp><Current dt:dt=""r8"">0</Current><DateUtc dt:dt=""string"">2023-07-20T14:06:42Z</DateUtc></FrequencyChange></FrequencyChanges></Clock>\n",2.0.10.252,2.0.10.356,2.0.10.356,Professional,1.0.0.1
Proc4,,List12,,,,,,,87,3,75,75,1368,3,0,,12,,,,,,,,,,,,,,,,,,,,,,,,,,,,,,,,,,,4,1,4,,,,DelayDiscountingTitrated Backup1,07-20-2023,10:06:42,7/20/2023 2:06:42 PM,3009,1,19,DelayDiscountingTitrated Backup1-3009-1,-811525653,1,60.018,"<?xml version=""1.0""?>\n<Clock xmlns:dt=""urn:schemas-microsoft-com:datatypes""><Description dt:dt=""string"">E-Prime Primary Realtime Clock</Description><StartTime><Timestamp dt:dt=""int"">0</Timestamp><DateUtc dt:dt=""string"">2023-07-20T14:06:42Z</DateUtc></StartTime><FrequencyChanges><FrequencyChange><Frequency dt:dt=""r8"">10000000</Frequency><Timestamp dt:dt=""r8"">2378598381965</Timestamp><Current dt:dt=""r8"">0</Current><DateUtc dt:dt=""string"">2023-07-20T14:06:42Z</DateUtc></FrequencyChange></FrequencyChanges></Clock>\n",2.0.10.252,2.0.10.356,2.0.10.356,Professional,1.0.0.1
Proc4,,List12,,,,,,,93,3,87,87,512,3,0,,6,,,,,,,,,,,,,,,,,,,,,,,,,,,,,,,,,,,5,1,5,,,,DelayDiscountingTitrated Backup1,07-20-2023,10:06:42,7/20/2023 2:06:42 PM,3009,1,19,DelayDiscountingTitrated Backup1-3009-1,-811525653,1,60.018,"<?xml version=""1.0""?>\n<Clock xmlns:dt=""urn:schemas-microsoft-com:datatypes""><Description dt:dt=""string"">E-Prime Primary Realtime Clock</Description><StartTime><Timestamp dt:dt=""int"">0</Timestamp><DateUtc dt:dt=""string"">2023-07-20T14:06:42Z</DateUtc></StartTime><FrequencyChanges><FrequencyChange><Frequency dt:dt=""r8"">10000000</Frequency><Timestamp dt:dt=""r8"">2378598381965</Timestamp><Current dt:dt=""r8"">0</Current><DateUtc dt:dt=""string"">2023-07-20T14:06:42Z</DateUtc></FrequencyChange></FrequencyChanges></Clock>\n",2.0.10.252,2.0.10.356,2.0.10.356,Professional,1.0.0.1
Proc4,,List12,,,,,,,96,3,93,93,770,3,0,,3,,,,,,,,,,,,,,,,,,,,,,,,,,,,,,,,,,,6,1,6,,,,DelayDiscountingTitrated Backup1,07-20-2023,10:06:42,7/20/2023 2:06:42 PM,3009,1,19,DelayDiscountingTitrated Backup1-3009-1,-811525653,1,60.018,"<?xml version=""1.0""?>\n<Clock xmlns:dt=""urn:schemas-microsoft-com:datatypes""><Description dt:dt=""string"">E-Prime Primary Realtime Clock</Description><StartTime><Timestamp dt:dt=""int"">0</Timestamp><DateUtc dt:dt=""string"">2023-07-20T14:06:42Z</DateUtc></StartTime><FrequencyChanges><FrequencyChange><Frequency dt:dt=""r8"">10000000</Frequency><Timestamp dt:dt=""r8"">2378598381965</Timestamp><Current dt:dt=""r8"">0</Current><DateUtc dt:dt=""string"">2023-07-20T14:06:42Z</DateUtc></FrequencyChange></FrequencyChanges></Clock>\n",2.0.10.252,2.0.10.356,2.0.10.356,Professional,1.0.0.1
Proc4,,List12,,,,,,,98,3,96,96,714,3,0,,2,,,,,,,,,,,,,,,,,,,,,,,,,,,,,,,,,,,7,1,7,,,,DelayDiscountingTitrated Backup1,07-20-2023,10:06:42,7/20/2023 2:06:42 PM,3009,1,19,DelayDiscountingTitrated Backup1-3009-1,-811525653,1,60.018,"<?xml version=""1.0""?>\n<Clock xmlns:dt=""urn:schemas-microsoft-com:datatypes""><Description dt:dt=""string"">E-Prime Primary Realtime Clock</Description><StartTime><Timestamp dt:dt=""int"">0</Timestamp><DateUtc dt:dt=""string"">2023-07-20T14:06:42Z</DateUtc></StartTime><FrequencyChanges><FrequencyChange><Frequency dt:dt=""r8"">10000000</Frequency><Timestamp dt:dt=""r8"">2378598381965</Timestamp><Current dt:dt=""r8"">0</Current><DateUtc dt:dt=""string"">2023-07-20T14:06:42Z</DateUtc></FrequencyChange></FrequencyChanges></Clock>\n",2.0.10.252,2.0.10.356,2.0.10.356,Professional,1.0.0.1
Proc4,,List12,,,,,,,99,3,98,98,691,3,0,,1,,,,,,,,,,,,,,,,,,,,,,,,,,,,,,,,,,,8,1,8,,,,DelayDiscountingTitrated Backup1,07-20-2023,10:06:42,7/20/2023 2:06:42 PM,3009,1,19,DelayDiscountingTitrated Backup1-3009-1,-811525653,1,60.018,"<?xml version=""1.0""?>\n<Clock xmlns:dt=""urn:schemas-microsoft-com:datatypes""><Description dt:dt=""string"">E-Prime Primary Realtime Clock</Description><StartTime><Timestamp dt:dt=""int"">0</Timestamp><DateUtc dt:dt=""string"">2023-07-20T14:06:42Z</DateUtc></StartTime><FrequencyChanges><FrequencyChange><Frequency dt:dt=""r8"">10000000</Frequency><Timestamp dt:dt=""r8"">2378598381965</Timestamp><Current dt:dt=""r8"">0</Current><DateUtc dt:dt=""string"">2023-07-20T14:06:42Z</DateUtc></FrequencyChange></FrequencyChanges></Clock>\n",2.0.10.252,2.0.10.356,2.0.10.356,Professional,1.0.0.1
Proc4,,List12,,,,,,,99,3,98,99,903,3,0,,,,,,,,,,,,,,,,,,,,,,,,,,,,,,,,,,,,,9,1,9,,,,DelayDiscountingTitrated Backup1,07-20-2023,10:06:42,7/20/2023 2:06:42 PM,3009,1,19,DelayDiscountingTitrated Backup1-3009-1,-811525653,1,60.018,"<?xml version=""1.0""?>\n<Clock xmlns:dt=""urn:schemas-microsoft-com:datatypes""><Description dt:dt=""string"">E-Prime Primary Realtime Clock</Description><StartTime><Timestamp dt:dt=""int"">0</Timestamp><DateUtc dt:dt=""string"">2023-07-20T14:06:42Z</DateUtc></StartTime><FrequencyChanges><FrequencyChange><Frequency dt:dt=""r8"">10000000</Frequency><Timestamp dt:dt=""r8"">2378598381965</Timestamp><Current dt:dt=""r8"">0</Current><DateUtc dt:dt=""string"">2023-07-20T14:06:42Z</DateUtc></FrequencyChange></FrequencyChanges></Clock>\n",2.0.10.252,2.0.10.356,2.0.10.356,Professional,1.0.0.1
discount4,,List7,,,,,,,,,,,,,,,,200,5 years,,1825,,,,,,,,,,,,,,,,,,,,,,,,,,,,,,,,,,1,1,1,DelayDiscountingTitrated Backup1,07-20-2023,10:06:42,7/20/2023 2:06:42 PM,3009,1,19,DelayDiscountingTitrated Backup1-3009-1,-811525653,1,60.018,"<?xml version=""1.0""?>\n<Clock xmlns:dt=""urn:schemas-microsoft-com:datatypes""><Description dt:dt=""string"">E-Prime Primary Realtime Clock</Description><StartTime><Timestamp dt:dt=""int"">0</Timestamp><DateUtc dt:dt=""string"">2023-07-20T14:06:42Z</DateUtc></StartTime><FrequencyChanges><FrequencyChange><Frequency dt:dt=""r8"">10000000</Frequency><Timestamp dt:dt=""r8"">2378598381965</Timestamp><Current dt:dt=""r8"">0</Current><DateUtc dt:dt=""string"">2023-07-20T14:06:42Z</DateUtc></FrequencyChange></FrequencyChanges></Clock>\n",2.0.10.252,2.0.10.356,2.0.10.356,Professional,1.0.0.1
fiveyearproc,,List1,,,,,,,,,,,,,,,,,,,,,,5,1,6,6,,,,,,,,,,,,,,,,,,,,,,,,,,,,,,,DelayDiscountingTitrated Backup1,07-20-2023,10:06:42,7/20/2023 2:06:42 PM,3009,1,19,DelayDiscountingTitrated Backup1-3009-1,-811525653,1,60.018,"<?xml version=""1.0""?>\n<Clock xmlns:dt=""urn:schemas-microsoft-com:datatypes""><Description dt:dt=""string"">E-Prime Primary Realtime Clock</Description><StartTime><Timestamp dt:dt=""int"">0</Timestamp><DateUtc dt:dt=""string"">2023-07-20T14:06:42Z</DateUtc></StartTime><FrequencyChanges><FrequencyChange><Frequency dt:dt=""r8"">10000000</Frequency><Timestamp dt:dt=""r8"">2378598381965</Timestamp><Current dt:dt=""r8"">0</Current><DateUtc dt:dt=""string"">2023-07-20T14:06:42Z</DateUtc></FrequencyChange></FrequencyChanges></Clock>\n",2.0.10.252,2.0.10.356,2.0.10.356,Professional,1.0.0.1
,,,,,,,,,,,,,,,,,,,,,,,,,,,,,,,,,,,,,,,,,,,,,,,,,,,,,,,,,,DelayDiscountingTitrated Backup1,07-20-2023,10:06:42,7/20/2023 2:06:42 PM,3009,1,19,DelayDiscountingTitrated Backup1-3009-1,-811525653,1,60.018,"<?xml version=""1.0""?>\n<Clock xmlns:dt=""urn:schemas-microsoft-com:datatypes""><Description dt:dt=""string"">E-Prime Primary Realtime Clock</Description><StartTime><Timestamp dt:dt=""int"">0</Timestamp><DateUtc dt:dt=""string"">2023-07-20T14:06:42Z</DateUtc></StartTime><FrequencyChanges><FrequencyChange><Frequency dt:dt=""r8"">10000000</Frequency><Timestamp dt:dt=""r8"">2378598381965</Timestamp><Current dt:dt=""r8"">0</Current><DateUtc dt:dt=""string"">2023-07-20T14:06:42Z</DateUtc></FrequencyChange></FrequencyChanges></Clock>\n",2.0.10.252,2.0.10.356,2.0.10.356,Professional,1.0.0.1
