Procedure,List10,Running,List10.Cycle,List10.Sample,Slide2.RT,Slide2.RESP,Slide4.RT,Slide4.RESP,immed3,respprev,prevalue,imstring,Slide1.RT,Slide1.RESP,Slide5.RT,Slide5.RESP,immed5,immed,delaypd,timedays,List5,List5.Cycle,List5.Sample,List1,List1.Cycle,List1.Sample,roundnumber,List9,List9.Cycle,List9.Sample,List4,List4.Cycle,List4.Sample,List11,List11.Cycle,List11.Sample,List6,List6.Cycle,List6.Sample,List2,List2.Cycle,List2.Sample,List3,List3.Cycle,List3.Sample,List12,List12.Cycle,List12.Sample,List7,List7.Cycle,List7.Sample,List13,List13.Cycle,List13.Sample,List8,List8.Cycle,List8.Sample,Experiment,SessionDate,SessionTime,SessionStartDateTimeUtc,Subject,Session,Age,DataFile.Basename,RandomSeed,Group,Display.RefreshRate,Clock.Information,StudioVersion,RuntimeVersion,RuntimeVersionExpected,RuntimeCapabilities,ExperimentVersion
Init2,1,List10,1,1,6734,1,0,,100,1,200,,,,,,,,,,,,,,,,,,,,,,,,,,,,,,,,,,,,,,,,,,,,,,,DelayDiscountingTitrated Backup1,06-21-2024,16:14:31,6/21/2024 8:14:31 PM,3145,1,18,DelayDiscountingTitrated Backup1-3145-1,-2029533887,1,60.045,"<?xml version=""1.0""?>\n<Clock xmlns:dt=""urn:schemas-microsoft-com:datatypes""><Description dt:dt=""string"">E-Prime Primary Realtime Clock</Description><StartTime><Timestamp dt:dt=""int"">0</Timestamp><DateUtc dt:dt=""string"">2024-06-21T20:14:31Z</DateUtc></StartTime><FrequencyChanges><FrequencyChange><Frequency dt:dt=""r8"">10000000</Frequency><Timestamp dt:dt=""r8"">5332317827840</Timestamp><Current dt:dt=""r8"">0</Current><DateUtc dt:dt=""string"">2024-06-21T20:14:31Z</DateUtc></FrequencyChange></FrequencyChanges></Clock>\n",2.0.10.252,2.0.10.356,2.0.10.356,Professional,1.0.0.1
Proc2,2,List10,1,2,,,,,150,3,100,100,14864,3,0,,50,,,,,,,,,,,,,,,,,,,,,,,,,,,,,,,,,,,,,,,,,DelayDiscountingTitrated Backup1,06-21-2024,16:14:31,6/21/2024 8:14:31 PM,3145,1,18,DelayDiscountingTitrated Backup1-3145-1,-2029533887,1,60.045,"<?xml version=""1.0""?>\n<Clock xmlns:dt=""urn:schemas-microsoft-com:datatypes""><Description dt:dt=""string"">E-Prime Primary Realtime Clock</Description><StartTime><Timestamp dt:dt=""int"">0</Timestamp><DateUtc dt:dt=""string"">2024-06-21T20:14:31Z</DateUtc></StartTime><FrequencyChanges><FrequencyChange><Frequency dt:dt=""r8"">10000000</Frequency><Timestamp dt:dt=""r8"">5332317827840</Timestamp><Current dt:dt=""r8"">0</Current><DateUtc dt:dt=""string"">2024-06-21T20:14:31Z</DateUtc></FrequencyChange></FrequencyChanges></Clock>\n",2.0.10.252,2.0.10.356,2.0.10.356,Professional,1.0.0.1
Proc2,3,List10,1,3,,,,,175,3,150,150,13696,3,0,,25,,,,,,,,,,,,,,,,,,,,,,,,,,,,,,,,,,,,,,,,,DelayDiscountingTitrated Backup1,06-21-2024,16:14:31,6/21/2024 8:14:31 PM,3145,1,18,DelayDiscountingTitrated Backup1-3145-1,-2029533887,1,60.045,"<?xml version=""1.0""?>\n<Clock xmlns:dt=""urn:schemas-microsoft-com:datatypes""><Description dt:dt=""string"">E-Prime Primary Realtime Clock</Description><StartTime><Timestamp dt:dt=""int"">0</Timestamp><DateUtc dt:dt=""string"">2024-06-21T20:14:31Z</DateUtc></StartTime><FrequencyChanges><FrequencyChange><Frequency dt:dt=""r8"">10000000</Frequency><Timestamp dt:dt=""r8"">5332317827840</Timestamp><Current dt:dt=""r8"">0</Current><DateUtc dt:dt=""string"">2024-06-21T20:14:31Z</DateUtc></FrequencyChange></FrequencyChanges></Clock>\n",2.0.10.252,2.0.10.356,2.0.10.356,Professional,1.0.0.1
Proc2,4,List10,1,4,,,,,187,3,175,175,1830,3,0,,12,,,,,,,,,,,,,,,,,,,,,,,,,,,,,,,,,,,,,,,,,DelayDiscountingTitrated Backup1,06-21-2024,16:14:31,6/21/2024 8:14:31 PM,3145,1,18,DelayDiscountingTitrated Backup1-3145-1,-2029533887,1,60.045,"<?xml version=""1.0""?>\n<Clock xmlns:dt=""urn:schemas-microsoft-com:datatypes""><Description dt:dt=""string"">E-Prime Primary Realtime Clock</Description><StartTime><Timestamp dt:dt=""int"">0</Timestamp><DateUtc dt:dt=""string"">2024-06-21T20:14:31Z</DateUtc></StartTime><FrequencyChanges><FrequencyChange><Frequency dt:dt=""r8"">10000000</Frequency><Timestamp dt:dt=""r8"">5332317827840</Timestamp><Current dt:dt=""r8"">0</Current><DateUtc dt:dt=""string"">2024-06-21T20:14:31Z</DateUtc></FrequencyChange></FrequencyChanges></Clock>\n",2.0.10.252,2.0.10.356,2.0.10.356,Professional,1.0.0.1
Proc2,5,List10,1,5,,,,,193,3,187,187,1020,3,0,,6,,,,,,,,,,,,,,,,,,,,,,,,,,,,,,,,,,,,,,,,,DelayDiscountingTitrated Backup1,06-21-2024,16:14:31,6/21/2024 8:14:31 PM,3145,1,18,DelayDiscountingTitrated Backup1-3145-1,-2029533887,1,60.045,"<?xml version=""1.0""?>\n<Clock xmlns:dt=""urn:schemas-microsoft-com:datatypes""><Description dt:dt=""string"">E-Prime Primary Realtime Clock</Description><StartTime><Timestamp dt:dt=""int"">0</Timestamp><DateUtc dt:dt=""string"">2024-06-21T20:14:31Z</DateUtc></StartTime><FrequencyChanges><FrequencyChange><Frequency dt:dt=""r8"">10000000</Frequency><Timestamp dt:dt=""r8"">5332317827840</Timestamp><Current dt:dt=""r8"">0</Current><DateUtc dt:dt=""string"">2024-06-21T20:14:31Z</DateUtc></FrequencyChange></FrequencyChanges></Clock>\n",2.0.10.252,2.0.10.356,2.0.10.356,Professional,1.0.0.1
Proc2,6,List10,1,6,,,,,190,1,193,193,2026,1,0,,3,,,,,,,,,,,,,,,,,,,,,,,,,,,,,,,,,,,,,,,,,DelayDiscountingTitrated Backup1,06-21-2024,16:14:31,6/21/2024 8:14:31 PM,3145,1,18,DelayDiscountingTitrated Backup1-3145-1,-2029533887,1,60.045,"<?xml version=""1.0""?>\n<Clock xmlns:dt=""urn:schemas-microsoft-com:datatypes""><Description dt:dt=""string"">E-Prime Primary Realtime Clock</Description><StartTime><Timestamp dt:dt=""int"">0</Timestamp><DateUtc dt:dt=""string"">2024-06-21T20:14:31Z</DateUtc></StartTime><FrequencyChanges><FrequencyChange><Frequency dt:dt=""r8"">10000000</Frequency><Timestamp dt:dt=""r8"">5332317827840</Timestamp><Current dt:dt=""r8"">0</Current><DateUtc dt:dt=""string"">2024-06-21T20:14:31Z</DateUtc></FrequencyChange></FrequencyChanges></Clock>\n",2.0.10.252,2.0.10.356,2.0.10.356,Professional,1.0.0.1
Proc2,7,List10,1,7,,,,,188,1,190,190,1344,1,0,,2,,,,,,,,,,,,,,,,,,,,,,,,,,,,,,,,,,,,,,,,,DelayDiscountingTitrated Backup1,06-21-2024,16:14:31,6/21/2024 8:14:31 PM,3145,1,18,DelayDiscountingTitrated Backup1-3145-1,-2029533887,1,60.045,"<?xml version=""1.0""?>\n<Clock xmlns:dt=""urn:schemas-microsoft-com:datatypes""><Description dt:dt=""string"">E-Prime Primary Realtime Clock</Description><StartTime><Timestamp dt:dt=""int"">0</Timestamp><DateUtc dt:dt=""string"">2024-06-21T20:14:31Z</DateUtc></StartTime><FrequencyChanges><FrequencyChange><Frequency dt:dt=""r8"">10000000</Frequency><Timestamp dt:dt=""r8"">5332317827840</Timestamp><Current dt:dt=""r8"">0</Current><DateUtc dt:dt=""string"">2024-06-21T20:14:31Z</DateUtc></FrequencyChange></FrequencyChanges></Clock>\n",2.0.10.252,2.0.10.356,2.0.10.356,Professional,1.0.0.1
Proc2,8,List10,1,8,,,,,189,3,188,188,1376,3,0,,1,,,,,,,,,,,,,,,,,,,,,,,,,,,,,,,,,,,,,,,,,DelayDiscountingTitrated Backup1,06-21-2024,16:14:31,6/21/2024 8:14:31 PM,3145,1,18,DelayDiscountingTitrated Backup1-3145-1,-2029533887,1,60.045,"<?xml version=""1.0""?>\n<Clock xmlns:dt=""urn:schemas-microsoft-com:datatypes""><Description dt:dt=""string"">E-Prime Primary Realtime Clock</Description><StartTime><Timestamp dt:dt=""int"">0</Timestamp><DateUtc dt:dt=""string"">2024-06-21T20:14:31Z</DateUtc></StartTime><FrequencyChanges><FrequencyChange><Frequency dt:dt=""r8"">10000000</Frequency><Timestamp dt:dt=""r8"">5332317827840</Timestamp><Current dt:dt=""r8"">0</Current><DateUtc dt:dt=""string"">2024-06-21T20:14:31Z</DateUtc></FrequencyChange></FrequencyChanges></Clock>\n",2.0.10.252,2.0.10.356,2.0.10.356,Professional,1.0.0.1
Proc2,9,List10,1,9,,,,,189,3,188,189,1216,3,0,,,,,,,,,,,,,,,,,,,,,,,,,,,,,,,,,,,,,,,,,,,DelayDiscountingTitrated Backup1,06-21-2024,16:14:31,6/21/2024 8:14:31 PM,3145,1,18,DelayDiscountingTitrated Backup1-3145-1,-2029533887,1,60.045,"<?xml version=""1.0""?>\n<Clock xmlns:dt=""urn:schemas-microsoft-com:datatypes""><Description dt:dt=""string"">E-Prime Primary Realtime Clock</Description><StartTime><Timestamp dt:dt=""int"">0</Timestamp><DateUtc dt:dt=""string"">2024-06-21T20:14:31Z</DateUtc></StartTime><FrequencyChanges><FrequencyChange><Frequency dt:dt=""r8"">10000000</Frequency><Timestamp dt:dt=""r8"">5332317827840</Timestamp><Current dt:dt=""r8"">0</Current><DateUtc dt:dt=""string"">2024-06-21T20:14:31Z</DateUtc></FrequencyChange></FrequencyChanges></Clock>\n",2.0.10.252,2.0.10.356,2.0.10.356,Professional,1.0.0.1
discount2,,List5,,,,,,,,,,,,,,,,200,6 month,180,1,1,1,,,,,,,,,,,,,,,,,,,,,,,,,,,,,,,,,,,DelayDiscountingTitrated Backup1,06-21-2024,16:14:31,6/21/2024 8:14:31 PM,3145,1,18,DelayDiscountingTitrated Backup1-3145-1,-2029533887,1,60.045,"<?xml version=""1.0""?>\n<Clock xmlns:dt=""urn:schemas-microsoft-com:datatypes""><Description dt:dt=""string"">E-Prime Primary Realtime Clock</Description><StartTime><Timestamp dt:dt=""int"">0</Timestamp><DateUtc dt:dt=""string"">2024-06-21T20:14:31Z</DateUtc></StartTime><FrequencyChanges><FrequencyChange><Frequency dt:dt=""r8"">10000000</Frequency><Timestamp dt:dt=""r8"">5332317827840</Timestamp><Current dt:dt=""r8"">0</Current><DateUtc dt:dt=""string"">2024-06-21T20:14:31Z</DateUtc></FrequencyChange></FrequencyChanges></Clock>\n",2.0.10.252,2.0.10.356,2.0.10.356,Professional,1.0.0.1
sixmthproc,,List1,,,,,,,,,,,,,,,,,,,,,,3,1,1,1,,,,,,,,,,,,,,,,,,,,,,,,,,,,,,,DelayDiscountingTitrated Backup1,06-21-2024,16:14:31,6/21/2024 8:14:31 PM,3145,1,18,DelayDiscountingTitrated Backup1-3145-1,-2029533887,1,60.045,"<?xml version=""1.0""?>\n<Clock xmlns:dt=""urn:schemas-microsoft-com:datatypes""><Description dt:dt=""string"">E-Prime Primary Realtime Clock</Description><StartTime><Timestamp dt:dt=""int"">0</Timestamp><DateUtc dt:dt=""string"">2024-06-21T20:14:31Z</DateUtc></StartTime><FrequencyChanges><FrequencyChange><Frequency dt:dt=""r8"">10000000</Frequency><Timestamp dt:dt=""r8"">5332317827840</Timestamp><Current dt:dt=""r8"">0</Current><DateUtc dt:dt=""string"">2024-06-21T20:14:31Z</DateUtc></FrequencyChange></FrequencyChanges></Clock>\n",2.0.10.252,2.0.10.356,2.0.10.356,Professional,1.0.0.1
Init1,,List9,,,3094,3,0,,600,3,200,,,,,,,,,,,,,,,,,1,1,1,,,,,,,,,,,,,,,,,,,,,,,,,,,,DelayDiscountingTitrated Backup1,06-21-2024,16:14:31,6/21/2024 8:14:31 PM,3145,1,18,DelayDiscountingTitrated Backup1-3145-1,-2029533887,1,60.045,"<?xml version=""1.0""?>\n<Clock xmlns:dt=""urn:schemas-microsoft-com:datatypes""><Description dt:dt=""string"">E-Prime Primary Realtime Clock</Description><StartTime><Timestamp dt:dt=""int"">0</Timestamp><DateUtc dt:dt=""string"">2024-06-21T20:14:31Z</DateUtc></StartTime><FrequencyChanges><FrequencyChange><Frequency dt:dt=""r8"">10000000</Frequency><Timestamp dt:dt=""r8"">5332317827840</Timestamp><Current dt:dt=""r8"">0</Current><DateUtc dt:dt=""string"">2024-06-21T20:14:31Z</DateUtc></FrequencyChange></FrequencyChanges></Clock>\n",2.0.10.252,2.0.10.356,2.0.10.356,Professional,1.0.0.1
Proc1,,List9,,,,,,,400,1,600,600,2481,1,0,,200,,,,,,,,,,,2,1,2,,,,,,,,,,,,,,,,,,,,,,,,,,,,DelayDiscountingTitrated Backup1,06-21-2024,16:14:31,6/21/2024 8:14:31 PM,3145,1,18,DelayDiscountingTitrated Backup1-3145-1,-2029533887,1,60.045,"<?xml version=""1.0""?>\n<Clock xmlns:dt=""urn:schemas-microsoft-com:datatypes""><Description dt:dt=""string"">E-Prime Primary Realtime Clock</Description><StartTime><Timestamp dt:dt=""int"">0</Timestamp><DateUtc dt:dt=""string"">2024-06-21T20:14:31Z</DateUtc></StartTime><FrequencyChanges><FrequencyChange><Frequency dt:dt=""r8"">10000000</Frequency><Timestamp dt:dt=""r8"">5332317827840</Timestamp><Current dt:dt=""r8"">0</Current><DateUtc dt:dt=""string"">2024-06-21T20:14:31Z</DateUtc></FrequencyChange></FrequencyChanges></Clock>\n",2.0.10.252,2.0.10.356,2.0.10.356,Professional,1.0.0.1
Proc1,,List9,,,,,,,500,3,400,400,3573,3,0,,100,,,,,,,,,,,3,1,3,,,,,,,,,,,,,,,,,,,,,,,,,,,,DelayDiscountingTitrated Backup1,06-21-2024,16:14:31,6/21/2024 8:14:31 PM,3145,1,18,DelayDiscountingTitrated Backup1-3145-1,-2029533887,1,60.045,"<?xml version=""1.0""?>\n<Clock xmlns:dt=""urn:schemas-microsoft-com:datatypes""><Description dt:dt=""string"">E-Prime Primary Realtime Clock</Description><StartTime><Timestamp dt:dt=""int"">0</Timestamp><DateUtc dt:dt=""string"">2024-06-21T20:14:31Z</DateUtc></StartTime><FrequencyChanges><FrequencyChange><Frequency dt:dt=""r8"">10000000</Frequency><Timestamp dt:dt=""r8"">5332317827840</Timestamp><Current dt:dt=""r8"">0</Current><DateUtc dt:dt=""string"">2024-06-21T20:14:31Z</DateUtc></FrequencyChange></FrequencyChanges></Clock>\n",2.0.10.252,2.0.10.356,2.0.10.356,Professional,1.0.0.1
Proc1,,List9,,,,,,,450,1,500,500,2438,1,0,,50,,,,,,,,,,,4,1,4,,,,,,,,,,,,,,,,,,,,,,,,,,,,DelayDiscountingTitrated Backup1,06-21-2024,16:14:31,6/21/2024 8:14:31 PM,3145,1,18,DelayDiscountingTitrated Backup1-3145-1,-2029533887,1,60.045,"<?xml version=""1.0""?>\n<Clock xmlns:dt=""urn:schemas-microsoft-com:datatypes""><Description dt:dt=""string"">E-Prime Primary Realtime Clock</Description><StartTime><Timestamp dt:dt=""int"">0</Timestamp><DateUtc dt:dt=""string"">2024-06-21T20:14:31Z</DateUtc></StartTime><FrequencyChanges><FrequencyChange><Frequency dt:dt=""r8"">10000000</Frequency><Timestamp dt:dt=""r8"">5332317827840</Timestamp><Current dt:dt=""r8"">0</Current><DateUtc dt:dt=""string"">2024-06-21T20:14:31Z</DateUtc></FrequencyChange></FrequencyChanges></Clock>\n",2.0.10.252,2.0.10.356,2.0.10.356,Professional,1.0.0.1
Proc1,,List9,,,,,,,475,3,450,450,3172,3,0,,25,,,,,,,,,,,5,1,5,,,,,,,,,,,,,,,,,,,,,,,,,,,,DelayDiscountingTitrated Backup1,06-21-2024,16:14:31,6/21/2024 8:14:31 PM,3145,1,18,DelayDiscountingTitrated Backup1-3145-1,-2029533887,1,60.045,"<?xml version=""1.0""?>\n<Clock xmlns:dt=""urn:schemas-microsoft-com:datatypes""><Description dt:dt=""string"">E-Prime Primary Realtime Clock</Description><StartTime><Timestamp dt:dt=""int"">0</Timestamp><DateUtc dt:dt=""string"">2024-06-21T20:14:31Z</DateUtc></StartTime><FrequencyChanges><FrequencyChange><Frequency dt:dt=""r8"">10000000</Frequency><Timestamp dt:dt=""r8"">5332317827840</Timestamp><Current dt:dt=""r8"">0</Current><DateUtc dt:dt=""string"">2024-06-21T20:14:31Z</DateUtc></FrequencyChange></FrequencyChanges></Clock>\n",2.0.10.252,2.0.10.356,2.0.10.356,Professional,1.0.0.1
Proc1,,List9,,,,,,,463,1,475,475,1492,1,0,,12,,,,,,,,,,,6,1,6,,,,,,,,,,,,,,,,,,,,,,,,,,,,DelayDiscountingTitrated Backup1,06-21-2024,16:14:31,6/21/2024 8:14:31 PM,3145,1,18,DelayDiscountingTitrated Backup1-3145-1,-2029533887,1,60.045,"<?xml version=""1.0""?>\n<Clock xmlns:dt=""urn:schemas-microsoft-com:datatypes""><Description dt:dt=""string"">E-Prime Primary Realtime Clock</Description><StartTime><Timestamp dt:dt=""int"">0</Timestamp><DateUtc dt:dt=""string"">2024-06-21T20:14:31Z</DateUtc></StartTime><FrequencyChanges><FrequencyChange><Frequency dt:dt=""r8"">10000000</Frequency><Timestamp dt:dt=""r8"">5332317827840</Timestamp><Current dt:dt=""r8"">0</Current><DateUtc dt:dt=""string"">2024-06-21T20:14:31Z</DateUtc></FrequencyChange></FrequencyChanges></Clock>\n",2.0.10.252,2.0.10.356,2.0.10.356,Professional,1.0.0.1
Proc1,,List9,,,,,,,469,3,463,463,1488,3,0,,6,,,,,,,,,,,7,1,7,,,,,,,,,,,,,,,,,,,,,,,,,,,,DelayDiscountingTitrated Backup1,06-21-2024,16:14:31,6/21/2024 8:14:31 PM,3145,1,18,DelayDiscountingTitrated Backup1-3145-1,-2029533887,1,60.045,"<?xml version=""1.0""?>\n<Clock xmlns:dt=""urn:schemas-microsoft-com:datatypes""><Description dt:dt=""string"">E-Prime Primary Realtime Clock</Description><StartTime><Timestamp dt:dt=""int"">0</Timestamp><DateUtc dt:dt=""string"">2024-06-21T20:14:31Z</DateUtc></StartTime><FrequencyChanges><FrequencyChange><Frequency dt:dt=""r8"">10000000</Frequency><Timestamp dt:dt=""r8"">5332317827840</Timestamp><Current dt:dt=""r8"">0</Current><DateUtc dt:dt=""string"">2024-06-21T20:14:31Z</DateUtc></FrequencyChange></FrequencyChanges></Clock>\n",2.0.10.252,2.0.10.356,2.0.10.356,Professional,1.0.0.1
Proc1,,List9,,,,,,,472,3,469,469,891,3,0,,3,,,,,,,,,,,8,1,8,,,,,,,,,,,,,,,,,,,,,,,,,,,,DelayDiscountingTitrated Backup1,06-21-2024,16:14:31,6/21/2024 8:14:31 PM,3145,1,18,DelayDiscountingTitrated Backup1-3145-1,-2029533887,1,60.045,"<?xml version=""1.0""?>\n<Clock xmlns:dt=""urn:schemas-microsoft-com:datatypes""><Description dt:dt=""string"">E-Prime Primary Realtime Clock</Description><StartTime><Timestamp dt:dt=""int"">0</Timestamp><DateUtc dt:dt=""string"">2024-06-21T20:14:31Z</DateUtc></StartTime><FrequencyChanges><FrequencyChange><Frequency dt:dt=""r8"">10000000</Frequency><Timestamp dt:dt=""r8"">5332317827840</Timestamp><Current dt:dt=""r8"">0</Current><DateUtc dt:dt=""string"">2024-06-21T20:14:31Z</DateUtc></FrequencyChange></FrequencyChanges></Clock>\n",2.0.10.252,2.0.10.356,2.0.10.356,Professional,1.0.0.1
Proc1,,List9,,,,,,,474,3,472,472,1270,3,0,,2,,,,,,,,,,,9,1,9,,,,,,,,,,,,,,,,,,,,,,,,,,,,DelayDiscountingTitrated Backup1,06-21-2024,16:14:31,6/21/2024 8:14:31 PM,3145,1,18,DelayDiscountingTitrated Backup1-3145-1,-2029533887,1,60.045,"<?xml version=""1.0""?>\n<Clock xmlns:dt=""urn:schemas-microsoft-com:datatypes""><Description dt:dt=""string"">E-Prime Primary Realtime Clock</Description><StartTime><Timestamp dt:dt=""int"">0</Timestamp><DateUtc dt:dt=""string"">2024-06-21T20:14:31Z</DateUtc></StartTime><FrequencyChanges><FrequencyChange><Frequency dt:dt=""r8"">10000000</Frequency><Timestamp dt:dt=""r8"">5332317827840</Timestamp><Current dt:dt=""r8"">0</Current><DateUtc dt:dt=""string"">2024-06-21T20:14:31Z</DateUtc></FrequencyChange></FrequencyChanges></Clock>\n",2.0.10.252,2.0.10.356,2.0.10.356,Professional,1.0.0.1
Proc1,,List9,,,,,,,473,1,474,474,939,1,0,,1,,,,,,,,,,,10,1,10,,,,,,,,,,,,,,,,,,,,,,,,,,,,DelayDiscountingTitrated Backup1,06-21-2024,16:14:31,6/21/2024 8:14:31 PM,3145,1,18,DelayDiscountingTitrated Backup1-3145-1,-2029533887,1,60.045,"<?xml version=""1.0""?>\n<Clock xmlns:dt=""urn:schemas-microsoft-com:datatypes""><Description dt:dt=""string"">E-Prime Primary Realtime Clock</Description><StartTime><Timestamp dt:dt=""int"">0</Timestamp><DateUtc dt:dt=""string"">2024-06-21T20:14:31Z</DateUtc></StartTime><FrequencyChanges><FrequencyChange><Frequency dt:dt=""r8"">10000000</Frequency><Timestamp dt:dt=""r8"">5332317827840</Timestamp><Current dt:dt=""r8"">0</Current><DateUtc dt:dt=""string"">2024-06-21T20:14:31Z</DateUtc></FrequencyChange></FrequencyChanges></Clock>\n",2.0.10.252,2.0.10.356,2.0.10.356,Professional,1.0.0.1
Proc1,,List9,,,,,,,473,3,474,473,1284,3,0,,,,,,,,,,,,,11,1,11,,,,,,,,,,,,,,,,,,,,,,,,,,,,DelayDiscountingTitrated Backup1,06-21-2024,16:14:31,6/21/2024 8:14:31 PM,3145,1,18,DelayDiscountingTitrated Backup1-3145-1,-2029533887,1,60.045,"<?xml version=""1.0""?>\n<Clock xmlns:dt=""urn:schemas-microsoft-com:datatypes""><Description dt:dt=""string"">E-Prime Primary Realtime Clock</Description><StartTime><Timestamp dt:dt=""int"">0</Timestamp><DateUtc dt:dt=""string"">2024-06-21T20:14:31Z</DateUtc></StartTime><FrequencyChanges><FrequencyChange><Frequency dt:dt=""r8"">10000000</Frequency><Timestamp dt:dt=""r8"">5332317827840</Timestamp><Current dt:dt=""r8"">0</Current><DateUtc dt:dt=""string"">2024-06-21T20:14:31Z</DateUtc></FrequencyChange></FrequencyChanges></Clock>\n",2.0.10.252,2.0.10.356,2.0.10.356,Professional,1.0.0.1
discount1,,List4,,,,,,,,,,,,,,,,200,1 month,30,,,,,,,,,,,1,1,1,,,,,,,,,,,,,,,,,,,,,,,,,DelayDiscountingTitrated Backup1,06-21-2024,16:14:31,6/21/2024 8:14:31 PM,3145,1,18,DelayDiscountingTitrated Backup1-3145-1,-2029533887,1,60.045,"<?xml version=""1.0""?>\n<Clock xmlns:dt=""urn:schemas-microsoft-com:datatypes""><Description dt:dt=""string"">E-Prime Primary Realtime Clock</Description><StartTime><Timestamp dt:dt=""int"">0</Timestamp><DateUtc dt:dt=""string"">2024-06-21T20:14:31Z</DateUtc></StartTime><FrequencyChanges><FrequencyChange><Frequency dt:dt=""r8"">10000000</Frequency><Timestamp dt:dt=""r8"">5332317827840</Timestamp><Current dt:dt=""r8"">0</Current><DateUtc dt:dt=""string"">2024-06-21T20:14:31Z</DateUtc></FrequencyChange></FrequencyChanges></Clock>\n",2.0.10.252,2.0.10.356,2.0.10.356,Professional,1.0.0.1
onemthproc,,List1,,,,,,,,,,,,,,,,,,,,,,2,1,2,2,,,,,,,,,,,,,,,,,,,,,,,,,,,,,,,DelayDiscountingTitrated Backup1,06-21-2024,16:14:31,6/21/2024 8:14:31 PM,3145,1,18,DelayDiscountingTitrated Backup1-3145-1,-2029533887,1,60.045,"<?xml version=""1.0""?>\n<Clock xmlns:dt=""urn:schemas-microsoft-com:datatypes""><Description dt:dt=""string"">E-Prime Primary Realtime Clock</Description><StartTime><Timestamp dt:dt=""int"">0</Timestamp><DateUtc dt:dt=""string"">2024-06-21T20:14:31Z</DateUtc></StartTime><FrequencyChanges><FrequencyChange><Frequency dt:dt=""r8"">10000000</Frequency><Timestamp dt:dt=""r8"">5332317827840</Timestamp><Current dt:dt=""r8"">0</Current><DateUtc dt:dt=""string"">2024-06-21T20:14:31Z</DateUtc></FrequencyChange></FrequencyChanges></Clock>\n",2.0.10.252,2.0.10.356,2.0.10.356,Professional,1.0.0.1
Init3,,List11,,,2906,1,0,,400,1,800,,,,,,,,,,,,,,,,,,,,,,,1,1,1,,,,,,,,,,,,,,,,,,,,,,DelayDiscountingTitrated Backup1,06-21-2024,16:14:31,6/21/2024 8:14:31 PM,3145,1,18,DelayDiscountingTitrated Backup1-3145-1,-2029533887,1,60.045,"<?xml version=""1.0""?>\n<Clock xmlns:dt=""urn:schemas-microsoft-com:datatypes""><Description dt:dt=""string"">E-Prime Primary Realtime Clock</Description><StartTime><Timestamp dt:dt=""int"">0</Timestamp><DateUtc dt:dt=""string"">2024-06-21T20:14:31Z</DateUtc></StartTime><FrequencyChanges><FrequencyChange><Frequency dt:dt=""r8"">10000000</Frequency><Timestamp dt:dt=""r8"">5332317827840</Timestamp><Current dt:dt=""r8"">0</Current><DateUtc dt:dt=""string"">2024-06-21T20:14:31Z</DateUtc></FrequencyChange></FrequencyChanges></Clock>\n",2.0.10.252,2.0.10.356,2.0.10.356,Professional,1.0.0.1
Proc3,,List11,,,,,,,200,1,400,400,2061,1,0,,200,,,,,,,,,,,,,,,,,2,1,2,,,,,,,,,,,,,,,,,,,,,,DelayDiscountingTitrated Backup1,06-21-2024,16:14:31,6/21/2024 8:14:31 PM,3145,1,18,DelayDiscountingTitrated Backup1-3145-1,-2029533887,1,60.045,"<?xml version=""1.0""?>\n<Clock xmlns:dt=""urn:schemas-microsoft-com:datatypes""><Description dt:dt=""string"">E-Prime Primary Realtime Clock</Description><StartTime><Timestamp dt:dt=""int"">0</Timestamp><DateUtc dt:dt=""string"">2024-06-21T20:14:31Z</DateUtc></StartTime><FrequencyChanges><FrequencyChange><Frequency dt:dt=""r8"">10000000</Frequency><Timestamp dt:dt=""r8"">5332317827840</Timestamp><Current dt:dt=""r8"">0</Current><DateUtc dt:dt=""string"">2024-06-21T20:14:31Z</DateUtc></FrequencyChange></FrequencyChanges></Clock>\n",2.0.10.252,2.0.10.356,2.0.10.356,Professional,1.0.0.1
Proc3,,List11,,,,,,,100,1,200,200,2250,1,0,,100,,,,,,,,,,,,,,,,,3,1,3,,,,,,,,,,,,,,,,,,,,,,DelayDiscountingTitrated Backup1,06-21-2024,16:14:31,6/21/2024 8:14:31 PM,3145,1,18,DelayDiscountingTitrated Backup1-3145-1,-2029533887,1,60.045,"<?xml version=""1.0""?>\n<Clock xmlns:dt=""urn:schemas-microsoft-com:datatypes""><Description dt:dt=""string"">E-Prime Primary Realtime Clock</Description><StartTime><Timestamp dt:dt=""int"">0</Timestamp><DateUtc dt:dt=""string"">2024-06-21T20:14:31Z</DateUtc></StartTime><FrequencyChanges><FrequencyChange><Frequency dt:dt=""r8"">10000000</Frequency><Timestamp dt:dt=""r8"">5332317827840</Timestamp><Current dt:dt=""r8"">0</Current><DateUtc dt:dt=""string"">2024-06-21T20:14:31Z</DateUtc></FrequencyChange></FrequencyChanges></Clock>\n",2.0.10.252,2.0.10.356,2.0.10.356,Professional,1.0.0.1
Proc3,,List11,,,,,,,50,1,100,100,3935,1,0,,50,,,,,,,,,,,,,,,,,4,1,4,,,,,,,,,,,,,,,,,,,,,,DelayDiscountingTitrated Backup1,06-21-2024,16:14:31,6/21/2024 8:14:31 PM,3145,1,18,DelayDiscountingTitrated Backup1-3145-1,-2029533887,1,60.045,"<?xml version=""1.0""?>\n<Clock xmlns:dt=""urn:schemas-microsoft-com:datatypes""><Description dt:dt=""string"">E-Prime Primary Realtime Clock</Description><StartTime><Timestamp dt:dt=""int"">0</Timestamp><DateUtc dt:dt=""string"">2024-06-21T20:14:31Z</DateUtc></StartTime><FrequencyChanges><FrequencyChange><Frequency dt:dt=""r8"">10000000</Frequency><Timestamp dt:dt=""r8"">5332317827840</Timestamp><Current dt:dt=""r8"">0</Current><DateUtc dt:dt=""string"">2024-06-21T20:14:31Z</DateUtc></FrequencyChange></FrequencyChanges></Clock>\n",2.0.10.252,2.0.10.356,2.0.10.356,Professional,1.0.0.1
Proc3,,List11,,,,,,,75,3,50,50,1129,3,0,,25,,,,,,,,,,,,,,,,,5,1,5,,,,,,,,,,,,,,,,,,,,,,DelayDiscountingTitrated Backup1,06-21-2024,16:14:31,6/21/2024 8:14:31 PM,3145,1,18,DelayDiscountingTitrated Backup1-3145-1,-2029533887,1,60.045,"<?xml version=""1.0""?>\n<Clock xmlns:dt=""urn:schemas-microsoft-com:datatypes""><Description dt:dt=""string"">E-Prime Primary Realtime Clock</Description><StartTime><Timestamp dt:dt=""int"">0</Timestamp><DateUtc dt:dt=""string"">2024-06-21T20:14:31Z</DateUtc></StartTime><FrequencyChanges><FrequencyChange><Frequency dt:dt=""r8"">10000000</Frequency><Timestamp dt:dt=""r8"">5332317827840</Timestamp><Current dt:dt=""r8"">0</Current><DateUtc dt:dt=""string"">2024-06-21T20:14:31Z</DateUtc></FrequencyChange></FrequencyChanges></Clock>\n",2.0.10.252,2.0.10.356,2.0.10.356,Professional,1.0.0.1
Proc3,,List11,,,,,,,87,3,75,75,962,3,0,,12,,,,,,,,,,,,,,,,,6,1,6,,,,,,,,,,,,,,,,,,,,,,DelayDiscountingTitrated Backup1,06-21-2024,16:14:31,6/21/2024 8:14:31 PM,3145,1,18,DelayDiscountingTitrated Backup1-3145-1,-2029533887,1,60.045,"<?xml version=""1.0""?>\n<Clock xmlns:dt=""urn:schemas-microsoft-com:datatypes""><Description dt:dt=""string"">E-Prime Primary Realtime Clock</Description><StartTime><Timestamp dt:dt=""int"">0</Timestamp><DateUtc dt:dt=""string"">2024-06-21T20:14:31Z</DateUtc></StartTime><FrequencyChanges><FrequencyChange><Frequency dt:dt=""r8"">10000000</Frequency><Timestamp dt:dt=""r8"">5332317827840</Timestamp><Current dt:dt=""r8"">0</Current><DateUtc dt:dt=""string"">2024-06-21T20:14:31Z</DateUtc></FrequencyChange></FrequencyChanges></Clock>\n",2.0.10.252,2.0.10.356,2.0.10.356,Professional,1.0.0.1
Proc3,,List11,,,,,,,93,3,87,87,306,3,0,,6,,,,,,,,,,,,,,,,,7,1,7,,,,,,,,,,,,,,,,,,,,,,DelayDiscountingTitrated Backup1,06-21-2024,16:14:31,6/21/2024 8:14:31 PM,3145,1,18,DelayDiscountingTitrated Backup1-3145-1,-2029533887,1,60.045,"<?xml version=""1.0""?>\n<Clock xmlns:dt=""urn:schemas-microsoft-com:datatypes""><Description dt:dt=""string"">E-Prime Primary Realtime Clock</Description><StartTime><Timestamp dt:dt=""int"">0</Timestamp><DateUtc dt:dt=""string"">2024-06-21T20:14:31Z</DateUtc></StartTime><FrequencyChanges><FrequencyChange><Frequency dt:dt=""r8"">10000000</Frequency><Timestamp dt:dt=""r8"">5332317827840</Timestamp><Current dt:dt=""r8"">0</Current><DateUtc dt:dt=""string"">2024-06-21T20:14:31Z</DateUtc></FrequencyChange></FrequencyChanges></Clock>\n",2.0.10.252,2.0.10.356,2.0.10.356,Professional,1.0.0.1
Proc3,,List11,,,,,,,96,3,93,93,213,3,0,,3,,,,,,,,,,,,,,,,,8,1,8,,,,,,,,,,,,,,,,,,,,,,DelayDiscountingTitrated Backup1,06-21-2024,16:14:31,6/21/2024 8:14:31 PM,3145,1,18,DelayDiscountingTitrated Backup1-3145-1,-2029533887,1,60.045,"<?xml version=""1.0""?>\n<Clock xmlns:dt=""urn:schemas-microsoft-com:datatypes""><Description dt:dt=""string"">E-Prime Primary Realtime Clock</Description><StartTime><Timestamp dt:dt=""int"">0</Timestamp><DateUtc dt:dt=""string"">2024-06-21T20:14:31Z</DateUtc></StartTime><FrequencyChanges><FrequencyChange><Frequency dt:dt=""r8"">10000000</Frequency><Timestamp dt:dt=""r8"">5332317827840</Timestamp><Current dt:dt=""r8"">0</Current><DateUtc dt:dt=""string"">2024-06-21T20:14:31Z</DateUtc></FrequencyChange></FrequencyChanges></Clock>\n",2.0.10.252,2.0.10.356,2.0.10.356,Professional,1.0.0.1
Proc3,,List11,,,,,,,98,3,96,96,298,3,0,,2,,,,,,,,,,,,,,,,,9,1,9,,,,,,,,,,,,,,,,,,,,,,DelayDiscountingTitrated Backup1,06-21-2024,16:14:31,6/21/2024 8:14:31 PM,3145,1,18,DelayDiscountingTitrated Backup1-3145-1,-2029533887,1,60.045,"<?xml version=""1.0""?>\n<Clock xmlns:dt=""urn:schemas-microsoft-com:datatypes""><Description dt:dt=""string"">E-Prime Primary Realtime Clock</Description><StartTime><Timestamp dt:dt=""int"">0</Timestamp><DateUtc dt:dt=""string"">2024-06-21T20:14:31Z</DateUtc></StartTime><FrequencyChanges><FrequencyChange><Frequency dt:dt=""r8"">10000000</Frequency><Timestamp dt:dt=""r8"">5332317827840</Timestamp><Current dt:dt=""r8"">0</Current><DateUtc dt:dt=""string"">2024-06-21T20:14:31Z</DateUtc></FrequencyChange></FrequencyChanges></Clock>\n",2.0.10.252,2.0.10.356,2.0.10.356,Professional,1.0.0.1
Proc3,,List11,,,,,,,99,3,98,98,285,3,0,,1,,,,,,,,,,,,,,,,,10,1,10,,,,,,,,,,,,,,,,,,,,,,DelayDiscountingTitrated Backup1,06-21-2024,16:14:31,6/21/2024 8:14:31 PM,3145,1,18,DelayDiscountingTitrated Backup1-3145-1,-2029533887,1,60.045,"<?xml version=""1.0""?>\n<Clock xmlns:dt=""urn:schemas-microsoft-com:datatypes""><Description dt:dt=""string"">E-Prime Primary Realtime Clock</Description><StartTime><Timestamp dt:dt=""int"">0</Timestamp><DateUtc dt:dt=""string"">2024-06-21T20:14:31Z</DateUtc></StartTime><FrequencyChanges><FrequencyChange><Frequency dt:dt=""r8"">10000000</Frequency><Timestamp dt:dt=""r8"">5332317827840</Timestamp><Current dt:dt=""r8"">0</Current><DateUtc dt:dt=""string"">2024-06-21T20:14:31Z</DateUtc></FrequencyChange></FrequencyChanges></Clock>\n",2.0.10.252,2.0.10.356,2.0.10.356,Professional,1.0.0.1
Proc3,,List11,,,,,,,99,3,98,99,352,3,0,,,,,,,,,,,,,,,,,,,11,1,11,,,,,,,,,,,,,,,,,,,,,,DelayDiscountingTitrated Backup1,06-21-2024,16:14:31,6/21/2024 8:14:31 PM,3145,1,18,DelayDiscountingTitrated Backup1-3145-1,-2029533887,1,60.045,"<?xml version=""1.0""?>\n<Clock xmlns:dt=""urn:schemas-microsoft-com:datatypes""><Description dt:dt=""string"">E-Prime Primary Realtime Clock</Description><StartTime><Timestamp dt:dt=""int"">0</Timestamp><DateUtc dt:dt=""string"">2024-06-21T20:14:31Z</DateUtc></StartTime><FrequencyChanges><FrequencyChange><Frequency dt:dt=""r8"">10000000</Frequency><Timestamp dt:dt=""r8"">5332317827840</Timestamp><Current dt:dt=""r8"">0</Current><DateUtc dt:dt=""string"">2024-06-21T20:14:31Z</DateUtc></FrequencyChange></FrequencyChanges></Clock>\n",2.0.10.252,2.0.10.356,2.0.10.356,Professional,1.0.0.1
discount3,,List6,,,,,,,,,,,,,,,,800,1 year,365,,,,,,,,,,,,,,,,,3,1,1,,,,,,,,,,,,,,,,,,,DelayDiscountingTitrated Backup1,06-21-2024,16:14:31,6/21/2024 8:14:31 PM,3145,1,18,DelayDiscountingTitrated Backup1-3145-1,-2029533887,1,60.045,"<?xml version=""1.0""?>\n<Clock xmlns:dt=""urn:schemas-microsoft-com:datatypes""><Description dt:dt=""string"">E-Prime Primary Realtime Clock</Description><StartTime><Timestamp dt:dt=""int"">0</Timestamp><DateUtc dt:dt=""string"">2024-06-21T20:14:31Z</DateUtc></StartTime><FrequencyChanges><FrequencyChange><Frequency dt:dt=""r8"">10000000</Frequency><Timestamp dt:dt=""r8"">5332317827840</Timestamp><Current dt:dt=""r8"">0</Current><DateUtc dt:dt=""string"">2024-06-21T20:14:31Z</DateUtc></FrequencyChange></FrequencyChanges></Clock>\n",2.0.10.252,2.0.10.356,2.0.10.356,Professional,1.0.0.1
oneyearproc,,List1,,,,,,,,,,,,,,,,,,,,,,4,1,3,3,,,,,,,,,,,,,,,,,,,,,,,,,,,,,,,DelayDiscountingTitrated Backup1,06-21-2024,16:14:31,6/21/2024 8:14:31 PM,3145,1,18,DelayDiscountingTitrated Backup1-3145-1,-2029533887,1,60.045,"<?xml version=""1.0""?>\n<Clock xmlns:dt=""urn:schemas-microsoft-com:datatypes""><Description dt:dt=""string"">E-Prime Primary Realtime Clock</Description><StartTime><Timestamp dt:dt=""int"">0</Timestamp><DateUtc dt:dt=""string"">2024-06-21T20:14:31Z</DateUtc></StartTime><FrequencyChanges><FrequencyChange><Frequency dt:dt=""r8"">10000000</Frequency><Timestamp dt:dt=""r8"">5332317827840</Timestamp><Current dt:dt=""r8"">0</Current><DateUtc dt:dt=""string"">2024-06-21T20:14:31Z</DateUtc></FrequencyChange></FrequencyChanges></Clock>\n",2.0.10.252,2.0.10.356,2.0.10.356,Professional,1.0.0.1
TrialProcInit,,List2,,,2410,3,0,,750,3,500,,,,,,,,,,,,,,,,,,,,,,,,,,,,,1,1,1,,,,,,,,,,,,,,,,DelayDiscountingTitrated Backup1,06-21-2024,16:14:31,6/21/2024 8:14:31 PM,3145,1,18,DelayDiscountingTitrated Backup1-3145-1,-2029533887,1,60.045,"<?xml version=""1.0""?>\n<Clock xmlns:dt=""urn:schemas-microsoft-com:datatypes""><Description dt:dt=""string"">E-Prime Primary Realtime Clock</Description><StartTime><Timestamp dt:dt=""int"">0</Timestamp><DateUtc dt:dt=""string"">2024-06-21T20:14:31Z</DateUtc></StartTime><FrequencyChanges><FrequencyChange><Frequency dt:dt=""r8"">10000000</Frequency><Timestamp dt:dt=""r8"">5332317827840</Timestamp><Current dt:dt=""r8"">0</Current><DateUtc dt:dt=""string"">2024-06-21T20:14:31Z</DateUtc></FrequencyChange></FrequencyChanges></Clock>\n",2.0.10.252,2.0.10.356,2.0.10.356,Professional,1.0.0.1
TrialProc,,List2,,,,,,,875,3,750,750,2929,3,0,,125,,,,,,,,,,,,,,,,,,,,,,,2,1,2,,,,,,,,,,,,,,,,DelayDiscountingTitrated Backup1,06-21-2024,16:14:31,6/21/2024 8:14:31 PM,3145,1,18,DelayDiscountingTitrated Backup1-3145-1,-2029533887,1,60.045,"<?xml version=""1.0""?>\n<Clock xmlns:dt=""urn:schemas-microsoft-com:datatypes""><Description dt:dt=""string"">E-Prime Primary Realtime Clock</Description><StartTime><Timestamp dt:dt=""int"">0</Timestamp><DateUtc dt:dt=""string"">2024-06-21T20:14:31Z</DateUtc></StartTime><FrequencyChanges><FrequencyChange><Frequency dt:dt=""r8"">10000000</Frequency><Timestamp dt:dt=""r8"">5332317827840</Timestamp><Current dt:dt=""r8"">0</Current><DateUtc dt:dt=""string"">2024-06-21T20:14:31Z</DateUtc></FrequencyChange></FrequencyChanges></Clock>\n",2.0.10.252,2.0.10.356,2.0.10.356,Professional,1.0.0.1
TrialProc,,List2,,,,,,,937,3,875,875,946,3,0,,62,,,,,,,,,,,,,,,,,,,,,,,3,1,3,,,,,,,,,,,,,,,,DelayDiscountingTitrated Backup1,06-21-2024,16:14:31,6/21/2024 8:14:31 PM,3145,1,18,DelayDiscountingTitrated Backup1-3145-1,-2029533887,1,60.045,"<?xml version=""1.0""?>\n<Clock xmlns:dt=""urn:schemas-microsoft-com:datatypes""><Description dt:dt=""string"">E-Prime Primary Realtime Clock</Description><StartTime><Timestamp dt:dt=""int"">0</Timestamp><DateUtc dt:dt=""string"">2024-06-21T20:14:31Z</DateUtc></StartTime><FrequencyChanges><FrequencyChange><Frequency dt:dt=""r8"">10000000</Frequency><Timestamp dt:dt=""r8"">5332317827840</Timestamp><Current dt:dt=""r8"">0</Current><DateUtc dt:dt=""string"">2024-06-21T20:14:31Z</DateUtc></FrequencyChange></FrequencyChanges></Clock>\n",2.0.10.252,2.0.10.356,2.0.10.356,Professional,1.0.0.1
TrialProc,,List2,,,,,,,969,3,937,937,1315,3,0,,32,,,,,,,,,,,,,,,,,,,,,,,4,1,4,,,,,,,,,,,,,,,,DelayDiscountingTitrated Backup1,06-21-2024,16:14:31,6/21/2024 8:14:31 PM,3145,1,18,DelayDiscountingTitrated Backup1-3145-1,-2029533887,1,60.045,"<?xml version=""1.0""?>\n<Clock xmlns:dt=""urn:schemas-microsoft-com:datatypes""><Description dt:dt=""string"">E-Prime Primary Realtime Clock</Description><StartTime><Timestamp dt:dt=""int"">0</Timestamp><DateUtc dt:dt=""string"">2024-06-21T20:14:31Z</DateUtc></StartTime><FrequencyChanges><FrequencyChange><Frequency dt:dt=""r8"">10000000</Frequency><Timestamp dt:dt=""r8"">5332317827840</Timestamp><Current dt:dt=""r8"">0</Current><DateUtc dt:dt=""string"">2024-06-21T20:14:31Z</DateUtc></FrequencyChange></FrequencyChanges></Clock>\n",2.0.10.252,2.0.10.356,2.0.10.356,Professional,1.0.0.1
TrialProc,,List2,,,,,,,953,1,969,969,3061,1,0,,16,,,,,,,,,,,,,,,,,,,,,,,5,1,5,,,,,,,,,,,,,,,,DelayDiscountingTitrated Backup1,06-21-2024,16:14:31,6/21/2024 8:14:31 PM,3145,1,18,DelayDiscountingTitrated Backup1-3145-1,-2029533887,1,60.045,"<?xml version=""1.0""?>\n<Clock xmlns:dt=""urn:schemas-microsoft-com:datatypes""><Description dt:dt=""string"">E-Prime Primary Realtime Clock</Description><StartTime><Timestamp dt:dt=""int"">0</Timestamp><DateUtc dt:dt=""string"">2024-06-21T20:14:31Z</DateUtc></StartTime><FrequencyChanges><FrequencyChange><Frequency dt:dt=""r8"">10000000</Frequency><Timestamp dt:dt=""r8"">5332317827840</Timestamp><Current dt:dt=""r8"">0</Current><DateUtc dt:dt=""string"">2024-06-21T20:14:31Z</DateUtc></FrequencyChange></FrequencyChanges></Clock>\n",2.0.10.252,2.0.10.356,2.0.10.356,Professional,1.0.0.1
TrialProc,,List2,,,,,,,945,1,953,953,1090,1,0,,8,,,,,,,,,,,,,,,,,,,,,,,6,1,6,,,,,,,,,,,,,,,,DelayDiscountingTitrated Backup1,06-21-2024,16:14:31,6/21/2024 8:14:31 PM,3145,1,18,DelayDiscountingTitrated Backup1-3145-1,-2029533887,1,60.045,"<?xml version=""1.0""?>\n<Clock xmlns:dt=""urn:schemas-microsoft-com:datatypes""><Description dt:dt=""string"">E-Prime Primary Realtime Clock</Description><StartTime><Timestamp dt:dt=""int"">0</Timestamp><DateUtc dt:dt=""string"">2024-06-21T20:14:31Z</DateUtc></StartTime><FrequencyChanges><FrequencyChange><Frequency dt:dt=""r8"">10000000</Frequency><Timestamp dt:dt=""r8"">5332317827840</Timestamp><Current dt:dt=""r8"">0</Current><DateUtc dt:dt=""string"">2024-06-21T20:14:31Z</DateUtc></FrequencyChange></FrequencyChanges></Clock>\n",2.0.10.252,2.0.10.356,2.0.10.356,Professional,1.0.0.1
TrialProc,,List2,,,,,,,941,1,945,945,925,1,0,,4,,,,,,,,,,,,,,,,,,,,,,,7,1,7,,,,,,,,,,,,,,,,DelayDiscountingTitrated Backup1,06-21-2024,16:14:31,6/21/2024 8:14:31 PM,3145,1,18,DelayDiscountingTitrated Backup1-3145-1,-2029533887,1,60.045,"<?xml version=""1.0""?>\n<Clock xmlns:dt=""urn:schemas-microsoft-com:datatypes""><Description dt:dt=""string"">E-Prime Primary Realtime Clock</Description><StartTime><Timestamp dt:dt=""int"">0</Timestamp><DateUtc dt:dt=""string"">2024-06-21T20:14:31Z</DateUtc></StartTime><FrequencyChanges><FrequencyChange><Frequency dt:dt=""r8"">10000000</Frequency><Timestamp dt:dt=""r8"">5332317827840</Timestamp><Current dt:dt=""r8"">0</Current><DateUtc dt:dt=""string"">2024-06-21T20:14:31Z</DateUtc></FrequencyChange></FrequencyChanges></Clock>\n",2.0.10.252,2.0.10.356,2.0.10.356,Professional,1.0.0.1
TrialProc,,List2,,,,,,,939,1,941,941,823,1,0,,2,,,,,,,,,,,,,,,,,,,,,,,8,1,8,,,,,,,,,,,,,,,,DelayDiscountingTitrated Backup1,06-21-2024,16:14:31,6/21/2024 8:14:31 PM,3145,1,18,DelayDiscountingTitrated Backup1-3145-1,-2029533887,1,60.045,"<?xml version=""1.0""?>\n<Clock xmlns:dt=""urn:schemas-microsoft-com:datatypes""><Description dt:dt=""string"">E-Prime Primary Realtime Clock</Description><StartTime><Timestamp dt:dt=""int"">0</Timestamp><DateUtc dt:dt=""string"">2024-06-21T20:14:31Z</DateUtc></StartTime><FrequencyChanges><FrequencyChange><Frequency dt:dt=""r8"">10000000</Frequency><Timestamp dt:dt=""r8"">5332317827840</Timestamp><Current dt:dt=""r8"">0</Current><DateUtc dt:dt=""string"">2024-06-21T20:14:31Z</DateUtc></FrequencyChange></FrequencyChanges></Clock>\n",2.0.10.252,2.0.10.356,2.0.10.356,Professional,1.0.0.1
TrialProc,,List2,,,,,,,938,1,939,939,1125,1,0,,1,,,,,,,,,,,,,,,,,,,,,,,9,1,9,,,,,,,,,,,,,,,,DelayDiscountingTitrated Backup1,06-21-2024,16:14:31,6/21/2024 8:14:31 PM,3145,1,18,DelayDiscountingTitrated Backup1-3145-1,-2029533887,1,60.045,"<?xml version=""1.0""?>\n<Clock xmlns:dt=""urn:schemas-microsoft-com:datatypes""><Description dt:dt=""string"">E-Prime Primary Realtime Clock</Description><StartTime><Timestamp dt:dt=""int"">0</Timestamp><DateUtc dt:dt=""string"">2024-06-21T20:14:31Z</DateUtc></StartTime><FrequencyChanges><FrequencyChange><Frequency dt:dt=""r8"">10000000</Frequency><Timestamp dt:dt=""r8"">5332317827840</Timestamp><Current dt:dt=""r8"">0</Current><DateUtc dt:dt=""string"">2024-06-21T20:14:31Z</DateUtc></FrequencyChange></FrequencyChanges></Clock>\n",2.0.10.252,2.0.10.356,2.0.10.356,Professional,1.0.0.1
TrialProc,,List2,,,,,,,938,1,939,938,759,1,0,,,,,,,,,,,,,,,,,,,,,,,,,10,1,10,,,,,,,,,,,,,,,,DelayDiscountingTitrated Backup1,06-21-2024,16:14:31,6/21/2024 8:14:31 PM,3145,1,18,DelayDiscountingTitrated Backup1-3145-1,-2029533887,1,60.045,"<?xml version=""1.0""?>\n<Clock xmlns:dt=""urn:schemas-microsoft-com:datatypes""><Description dt:dt=""string"">E-Prime Primary Realtime Clock</Description><StartTime><Timestamp dt:dt=""int"">0</Timestamp><DateUtc dt:dt=""string"">2024-06-21T20:14:31Z</DateUtc></StartTime><FrequencyChanges><FrequencyChange><Frequency dt:dt=""r8"">10000000</Frequency><Timestamp dt:dt=""r8"">5332317827840</Timestamp><Current dt:dt=""r8"">0</Current><DateUtc dt:dt=""string"">2024-06-21T20:14:31Z</DateUtc></FrequencyChange></FrequencyChanges></Clock>\n",2.0.10.252,2.0.10.356,2.0.10.356,Professional,1.0.0.1
discount,,List3,,,,,,,,,,,,,,,,500,1 week,7,,,,,,,,,,,,,,,,,,,,,,,2,1,1,,,,,,,,,,,,,DelayDiscountingTitrated Backup1,06-21-2024,16:14:31,6/21/2024 8:14:31 PM,3145,1,18,DelayDiscountingTitrated Backup1-3145-1,-2029533887,1,60.045,"<?xml version=""1.0""?>\n<Clock xmlns:dt=""urn:schemas-microsoft-com:datatypes""><Description dt:dt=""string"">E-Prime Primary Realtime Clock</Description><StartTime><Timestamp dt:dt=""int"">0</Timestamp><DateUtc dt:dt=""string"">2024-06-21T20:14:31Z</DateUtc></StartTime><FrequencyChanges><FrequencyChange><Frequency dt:dt=""r8"">10000000</Frequency><Timestamp dt:dt=""r8"">5332317827840</Timestamp><Current dt:dt=""r8"">0</Current><DateUtc dt:dt=""string"">2024-06-21T20:14:31Z</DateUtc></FrequencyChange></FrequencyChanges></Clock>\n",2.0.10.252,2.0.10.356,2.0.10.356,Professional,1.0.0.1
onewkproc,,List1,,,,,,,,,,,,,,,,,,,,,,1,1,4,4,,,,,,,,,,,,,,,,,,,,,,,,,,,,,,,DelayDiscountingTitrated Backup1,06-21-2024,16:14:31,6/21/2024 8:14:31 PM,3145,1,18,DelayDiscountingTitrated Backup1-3145-1,-2029533887,1,60.045,"<?xml version=""1.0""?>\n<Clock xmlns:dt=""urn:schemas-microsoft-com:datatypes""><Description dt:dt=""string"">E-Prime Primary Realtime Clock</Description><StartTime><Timestamp dt:dt=""int"">0</Timestamp><DateUtc dt:dt=""string"">2024-06-21T20:14:31Z</DateUtc></StartTime><FrequencyChanges><FrequencyChange><Frequency dt:dt=""r8"">10000000</Frequency><Timestamp dt:dt=""r8"">5332317827840</Timestamp><Current dt:dt=""r8"">0</Current><DateUtc dt:dt=""string"">2024-06-21T20:14:31Z</DateUtc></FrequencyChange></FrequencyChanges></Clock>\n",2.0.10.252,2.0.10.356,2.0.10.356,Professional,1.0.0.1
Init4,,List12,,,3965,1,0,,250,1,500,,,,,,,,,,,,,,,,,,,,,,,,,,,,,,,,,,,1,1,1,,,,,,,,,,DelayDiscountingTitrated Backup1,06-21-2024,16:14:31,6/21/2024 8:14:31 PM,3145,1,18,DelayDiscountingTitrated Backup1-3145-1,-2029533887,1,60.045,"<?xml version=""1.0""?>\n<Clock xmlns:dt=""urn:schemas-microsoft-com:datatypes""><Description dt:dt=""string"">E-Prime Primary Realtime Clock</Description><StartTime><Timestamp dt:dt=""int"">0</Timestamp><DateUtc dt:dt=""string"">2024-06-21T20:14:31Z</DateUtc></StartTime><FrequencyChanges><FrequencyChange><Frequency dt:dt=""r8"">10000000</Frequency><Timestamp dt:dt=""r8"">5332317827840</Timestamp><Current dt:dt=""r8"">0</Current><DateUtc dt:dt=""string"">2024-06-21T20:14:31Z</DateUtc></FrequencyChange></FrequencyChanges></Clock>\n",2.0.10.252,2.0.10.356,2.0.10.356,Professional,1.0.0.1
Proc4,,List12,,,,,,,125,1,250,250,990,1,0,,125,,,,,,,,,,,,,,,,,,,,,,,,,,,,,2,1,2,,,,,,,,,,DelayDiscountingTitrated Backup1,06-21-2024,16:14:31,6/21/2024 8:14:31 PM,3145,1,18,DelayDiscountingTitrated Backup1-3145-1,-2029533887,1,60.045,"<?xml version=""1.0""?>\n<Clock xmlns:dt=""urn:schemas-microsoft-com:datatypes""><Description dt:dt=""string"">E-Prime Primary Realtime Clock</Description><StartTime><Timestamp dt:dt=""int"">0</Timestamp><DateUtc dt:dt=""string"">2024-06-21T20:14:31Z</DateUtc></StartTime><FrequencyChanges><FrequencyChange><Frequency dt:dt=""r8"">10000000</Frequency><Timestamp dt:dt=""r8"">5332317827840</Timestamp><Current dt:dt=""r8"">0</Current><DateUtc dt:dt=""string"">2024-06-21T20:14:31Z</DateUtc></FrequencyChange></FrequencyChanges></Clock>\n",2.0.10.252,2.0.10.356,2.0.10.356,Professional,1.0.0.1
Proc4,,List12,,,,,,,63,1,125,125,261,1,0,,62,,,,,,,,,,,,,,,,,,,,,,,,,,,,,3,1,3,,,,,,,,,,DelayDiscountingTitrated Backup1,06-21-2024,16:14:31,6/21/2024 8:14:31 PM,3145,1,18,DelayDiscountingTitrated Backup1-3145-1,-2029533887,1,60.045,"<?xml version=""1.0""?>\n<Clock xmlns:dt=""urn:schemas-microsoft-com:datatypes""><Description dt:dt=""string"">E-Prime Primary Realtime Clock</Description><StartTime><Timestamp dt:dt=""int"">0</Timestamp><DateUtc dt:dt=""string"">2024-06-21T20:14:31Z</DateUtc></StartTime><FrequencyChanges><FrequencyChange><Frequency dt:dt=""r8"">10000000</Frequency><Timestamp dt:dt=""r8"">5332317827840</Timestamp><Current dt:dt=""r8"">0</Current><DateUtc dt:dt=""string"">2024-06-21T20:14:31Z</DateUtc></FrequencyChange></FrequencyChanges></Clock>\n",2.0.10.252,2.0.10.356,2.0.10.356,Professional,1.0.0.1
Proc4,,List12,,,,,,,31,1,63,63,73,1,0,,32,,,,,,,,,,,,,,,,,,,,,,,,,,,,,4,1,4,,,,,,,,,,DelayDiscountingTitrated Backup1,06-21-2024,16:14:31,6/21/2024 8:14:31 PM,3145,1,18,DelayDiscountingTitrated Backup1-3145-1,-2029533887,1,60.045,"<?xml version=""1.0""?>\n<Clock xmlns:dt=""urn:schemas-microsoft-com:datatypes""><Description dt:dt=""string"">E-Prime Primary Realtime Clock</Description><StartTime><Timestamp dt:dt=""int"">0</Timestamp><DateUtc dt:dt=""string"">2024-06-21T20:14:31Z</DateUtc></StartTime><FrequencyChanges><FrequencyChange><Frequency dt:dt=""r8"">10000000</Frequency><Timestamp dt:dt=""r8"">5332317827840</Timestamp><Current dt:dt=""r8"">0</Current><DateUtc dt:dt=""string"">2024-06-21T20:14:31Z</DateUtc></FrequencyChange></FrequencyChanges></Clock>\n",2.0.10.252,2.0.10.356,2.0.10.356,Professional,1.0.0.1
Proc4,,List12,,,,,,,15,1,31,31,285,1,0,,16,,,,,,,,,,,,,,,,,,,,,,,,,,,,,5,1,5,,,,,,,,,,DelayDiscountingTitrated Backup1,06-21-2024,16:14:31,6/21/2024 8:14:31 PM,3145,1,18,DelayDiscountingTitrated Backup1-3145-1,-2029533887,1,60.045,"<?xml version=""1.0""?>\n<Clock xmlns:dt=""urn:schemas-microsoft-com:datatypes""><Description dt:dt=""string"">E-Prime Primary Realtime Clock</Description><StartTime><Timestamp dt:dt=""int"">0</Timestamp><DateUtc dt:dt=""string"">2024-06-21T20:14:31Z</DateUtc></StartTime><FrequencyChanges><FrequencyChange><Frequency dt:dt=""r8"">10000000</Frequency><Timestamp dt:dt=""r8"">5332317827840</Timestamp><Current dt:dt=""r8"">0</Current><DateUtc dt:dt=""string"">2024-06-21T20:14:31Z</DateUtc></FrequencyChange></FrequencyChanges></Clock>\n",2.0.10.252,2.0.10.356,2.0.10.356,Professional,1.0.0.1
Proc4,,List12,,,,,,,23,3,15,15,1752,3,0,,8,,,,,,,,,,,,,,,,,,,,,,,,,,,,,6,1,6,,,,,,,,,,DelayDiscountingTitrated Backup1,06-21-2024,16:14:31,6/21/2024 8:14:31 PM,3145,1,18,DelayDiscountingTitrated Backup1-3145-1,-2029533887,1,60.045,"<?xml version=""1.0""?>\n<Clock xmlns:dt=""urn:schemas-microsoft-com:datatypes""><Description dt:dt=""string"">E-Prime Primary Realtime Clock</Description><StartTime><Timestamp dt:dt=""int"">0</Timestamp><DateUtc dt:dt=""string"">2024-06-21T20:14:31Z</DateUtc></StartTime><FrequencyChanges><FrequencyChange><Frequency dt:dt=""r8"">10000000</Frequency><Timestamp dt:dt=""r8"">5332317827840</Timestamp><Current dt:dt=""r8"">0</Current><DateUtc dt:dt=""string"">2024-06-21T20:14:31Z</DateUtc></FrequencyChange></FrequencyChanges></Clock>\n",2.0.10.252,2.0.10.356,2.0.10.356,Professional,1.0.0.1
Proc4,,List12,,,,,,,27,3,23,23,1921,3,0,,4,,,,,,,,,,,,,,,,,,,,,,,,,,,,,7,1,7,,,,,,,,,,DelayDiscountingTitrated Backup1,06-21-2024,16:14:31,6/21/2024 8:14:31 PM,3145,1,18,DelayDiscountingTitrated Backup1-3145-1,-2029533887,1,60.045,"<?xml version=""1.0""?>\n<Clock xmlns:dt=""urn:schemas-microsoft-com:datatypes""><Description dt:dt=""string"">E-Prime Primary Realtime Clock</Description><StartTime><Timestamp dt:dt=""int"">0</Timestamp><DateUtc dt:dt=""string"">2024-06-21T20:14:31Z</DateUtc></StartTime><FrequencyChanges><FrequencyChange><Frequency dt:dt=""r8"">10000000</Frequency><Timestamp dt:dt=""r8"">5332317827840</Timestamp><Current dt:dt=""r8"">0</Current><DateUtc dt:dt=""string"">2024-06-21T20:14:31Z</DateUtc></FrequencyChange></FrequencyChanges></Clock>\n",2.0.10.252,2.0.10.356,2.0.10.356,Professional,1.0.0.1
Proc4,,List12,,,,,,,29,3,27,27,1147,3,0,,2,,,,,,,,,,,,,,,,,,,,,,,,,,,,,8,1,8,,,,,,,,,,DelayDiscountingTitrated Backup1,06-21-2024,16:14:31,6/21/2024 8:14:31 PM,3145,1,18,DelayDiscountingTitrated Backup1-3145-1,-2029533887,1,60.045,"<?xml version=""1.0""?>\n<Clock xmlns:dt=""urn:schemas-microsoft-com:datatypes""><Description dt:dt=""string"">E-Prime Primary Realtime Clock</Description><StartTime><Timestamp dt:dt=""int"">0</Timestamp><DateUtc dt:dt=""string"">2024-06-21T20:14:31Z</DateUtc></StartTime><FrequencyChanges><FrequencyChange><Frequency dt:dt=""r8"">10000000</Frequency><Timestamp dt:dt=""r8"">5332317827840</Timestamp><Current dt:dt=""r8"">0</Current><DateUtc dt:dt=""string"">2024-06-21T20:14:31Z</DateUtc></FrequencyChange></FrequencyChanges></Clock>\n",2.0.10.252,2.0.10.356,2.0.10.356,Professional,1.0.0.1
Proc4,,List12,,,,,,,30,3,29,29,764,3,0,,1,,,,,,,,,,,,,,,,,,,,,,,,,,,,,9,1,9,,,,,,,,,,DelayDiscountingTitrated Backup1,06-21-2024,16:14:31,6/21/2024 8:14:31 PM,3145,1,18,DelayDiscountingTitrated Backup1-3145-1,-2029533887,1,60.045,"<?xml version=""1.0""?>\n<Clock xmlns:dt=""urn:schemas-microsoft-com:datatypes""><Description dt:dt=""string"">E-Prime Primary Realtime Clock</Description><StartTime><Timestamp dt:dt=""int"">0</Timestamp><DateUtc dt:dt=""string"">2024-06-21T20:14:31Z</DateUtc></StartTime><FrequencyChanges><FrequencyChange><Frequency dt:dt=""r8"">10000000</Frequency><Timestamp dt:dt=""r8"">5332317827840</Timestamp><Current dt:dt=""r8"">0</Current><DateUtc dt:dt=""string"">2024-06-21T20:14:31Z</DateUtc></FrequencyChange></FrequencyChanges></Clock>\n",2.0.10.252,2.0.10.356,2.0.10.356,Professional,1.0.0.1
Proc4,,List12,,,,,,,30,3,29,30,420,3,0,,,,,,,,,,,,,,,,,,,,,,,,,,,,,,,10,1,10,,,,,,,,,,DelayDiscountingTitrated Backup1,06-21-2024,16:14:31,6/21/2024 8:14:31 PM,3145,1,18,DelayDiscountingTitrated Backup1-3145-1,-2029533887,1,60.045,"<?xml version=""1.0""?>\n<Clock xmlns:dt=""urn:schemas-microsoft-com:datatypes""><Description dt:dt=""string"">E-Prime Primary Realtime Clock</Description><StartTime><Timestamp dt:dt=""int"">0</Timestamp><DateUtc dt:dt=""string"">2024-06-21T20:14:31Z</DateUtc></StartTime><FrequencyChanges><FrequencyChange><Frequency dt:dt=""r8"">10000000</Frequency><Timestamp dt:dt=""r8"">5332317827840</Timestamp><Current dt:dt=""r8"">0</Current><DateUtc dt:dt=""string"">2024-06-21T20:14:31Z</DateUtc></FrequencyChange></FrequencyChanges></Clock>\n",2.0.10.252,2.0.10.356,2.0.10.356,Professional,1.0.0.1
discount4,,List7,,,,,,,,,,,,,,,,500,5 years,1825,,,,,,,,,,,,,,,,,,,,,,,,,,,,,2,1,1,,,,,,,DelayDiscountingTitrated Backup1,06-21-2024,16:14:31,6/21/2024 8:14:31 PM,3145,1,18,DelayDiscountingTitrated Backup1-3145-1,-2029533887,1,60.045,"<?xml version=""1.0""?>\n<Clock xmlns:dt=""urn:schemas-microsoft-com:datatypes""><Description dt:dt=""string"">E-Prime Primary Realtime Clock</Description><StartTime><Timestamp dt:dt=""int"">0</Timestamp><DateUtc dt:dt=""string"">2024-06-21T20:14:31Z</DateUtc></StartTime><FrequencyChanges><FrequencyChange><Frequency dt:dt=""r8"">10000000</Frequency><Timestamp dt:dt=""r8"">5332317827840</Timestamp><Current dt:dt=""r8"">0</Current><DateUtc dt:dt=""string"">2024-06-21T20:14:31Z</DateUtc></FrequencyChange></FrequencyChanges></Clock>\n",2.0.10.252,2.0.10.356,2.0.10.356,Professional,1.0.0.1
fiveyearproc,,List1,,,,,,,,,,,,,,,,,,,,,,5,1,5,5,,,,,,,,,,,,,,,,,,,,,,,,,,,,,,,DelayDiscountingTitrated Backup1,06-21-2024,16:14:31,6/21/2024 8:14:31 PM,3145,1,18,DelayDiscountingTitrated Backup1-3145-1,-2029533887,1,60.045,"<?xml version=""1.0""?>\n<Clock xmlns:dt=""urn:schemas-microsoft-com:datatypes""><Description dt:dt=""string"">E-Prime Primary Realtime Clock</Description><StartTime><Timestamp dt:dt=""int"">0</Timestamp><DateUtc dt:dt=""string"">2024-06-21T20:14:31Z</DateUtc></StartTime><FrequencyChanges><FrequencyChange><Frequency dt:dt=""r8"">10000000</Frequency><Timestamp dt:dt=""r8"">5332317827840</Timestamp><Current dt:dt=""r8"">0</Current><DateUtc dt:dt=""string"">2024-06-21T20:14:31Z</DateUtc></FrequencyChange></FrequencyChanges></Clock>\n",2.0.10.252,2.0.10.356,2.0.10.356,Professional,1.0.0.1
Init5,,List13,,,3337,1,0,,100,1,200,,,,,,,,,,,,,,,,,,,,,,,,,,,,,,,,,,,,,,,,,1,1,1,,,,DelayDiscountingTitrated Backup1,06-21-2024,16:14:31,6/21/2024 8:14:31 PM,3145,1,18,DelayDiscountingTitrated Backup1-3145-1,-2029533887,1,60.045,"<?xml version=""1.0""?>\n<Clock xmlns:dt=""urn:schemas-microsoft-com:datatypes""><Description dt:dt=""string"">E-Prime Primary Realtime Clock</Description><StartTime><Timestamp dt:dt=""int"">0</Timestamp><DateUtc dt:dt=""string"">2024-06-21T20:14:31Z</DateUtc></StartTime><FrequencyChanges><FrequencyChange><Frequency dt:dt=""r8"">10000000</Frequency><Timestamp dt:dt=""r8"">5332317827840</Timestamp><Current dt:dt=""r8"">0</Current><DateUtc dt:dt=""string"">2024-06-21T20:14:31Z</DateUtc></FrequencyChange></FrequencyChanges></Clock>\n",2.0.10.252,2.0.10.356,2.0.10.356,Professional,1.0.0.1
Proc5,,List13,,,,,,,50,1,100,100,275,1,0,,50,,,,,,,,,,,,,,,,,,,,,,,,,,,,,,,,,,,2,1,2,,,,DelayDiscountingTitrated Backup1,06-21-2024,16:14:31,6/21/2024 8:14:31 PM,3145,1,18,DelayDiscountingTitrated Backup1-3145-1,-2029533887,1,60.045,"<?xml version=""1.0""?>\n<Clock xmlns:dt=""urn:schemas-microsoft-com:datatypes""><Description dt:dt=""string"">E-Prime Primary Realtime Clock</Description><StartTime><Timestamp dt:dt=""int"">0</Timestamp><DateUtc dt:dt=""string"">2024-06-21T20:14:31Z</DateUtc></StartTime><FrequencyChanges><FrequencyChange><Frequency dt:dt=""r8"">10000000</Frequency><Timestamp dt:dt=""r8"">5332317827840</Timestamp><Current dt:dt=""r8"">0</Current><DateUtc dt:dt=""string"">2024-06-21T20:14:31Z</DateUtc></FrequencyChange></FrequencyChanges></Clock>\n",2.0.10.252,2.0.10.356,2.0.10.356,Professional,1.0.0.1
Proc5,,List13,,,,,,,25,1,50,50,695,1,0,,25,,,,,,,,,,,,,,,,,,,,,,,,,,,,,,,,,,,3,1,3,,,,DelayDiscountingTitrated Backup1,06-21-2024,16:14:31,6/21/2024 8:14:31 PM,3145,1,18,DelayDiscountingTitrated Backup1-3145-1,-2029533887,1,60.045,"<?xml version=""1.0""?>\n<Clock xmlns:dt=""urn:schemas-microsoft-com:datatypes""><Description dt:dt=""string"">E-Prime Primary Realtime Clock</Description><StartTime><Timestamp dt:dt=""int"">0</Timestamp><DateUtc dt:dt=""string"">2024-06-21T20:14:31Z</DateUtc></StartTime><FrequencyChanges><FrequencyChange><Frequency dt:dt=""r8"">10000000</Frequency><Timestamp dt:dt=""r8"">5332317827840</Timestamp><Current dt:dt=""r8"">0</Current><DateUtc dt:dt=""string"">2024-06-21T20:14:31Z</DateUtc></FrequencyChange></FrequencyChanges></Clock>\n",2.0.10.252,2.0.10.356,2.0.10.356,Professional,1.0.0.1
Proc5,,List13,,,,,,,13,1,25,25,26,1,0,,12,,,,,,,,,,,,,,,,,,,,,,,,,,,,,,,,,,,4,1,4,,,,DelayDiscountingTitrated Backup1,06-21-2024,16:14:31,6/21/2024 8:14:31 PM,3145,1,18,DelayDiscountingTitrated Backup1-3145-1,-2029533887,1,60.045,"<?xml version=""1.0""?>\n<Clock xmlns:dt=""urn:schemas-microsoft-com:datatypes""><Description dt:dt=""string"">E-Prime Primary Realtime Clock</Description><StartTime><Timestamp dt:dt=""int"">0</Timestamp><DateUtc dt:dt=""string"">2024-06-21T20:14:31Z</DateUtc></StartTime><FrequencyChanges><FrequencyChange><Frequency dt:dt=""r8"">10000000</Frequency><Timestamp dt:dt=""r8"">5332317827840</Timestamp><Current dt:dt=""r8"">0</Current><DateUtc dt:dt=""string"">2024-06-21T20:14:31Z</DateUtc></FrequencyChange></FrequencyChanges></Clock>\n",2.0.10.252,2.0.10.356,2.0.10.356,Professional,1.0.0.1
Proc5,,List13,,,,,,,7,1,13,13,63,1,0,,6,,,,,,,,,,,,,,,,,,,,,,,,,,,,,,,,,,,5,1,5,,,,DelayDiscountingTitrated Backup1,06-21-2024,16:14:31,6/21/2024 8:14:31 PM,3145,1,18,DelayDiscountingTitrated Backup1-3145-1,-2029533887,1,60.045,"<?xml version=""1.0""?>\n<Clock xmlns:dt=""urn:schemas-microsoft-com:datatypes""><Description dt:dt=""string"">E-Prime Primary Realtime Clock</Description><StartTime><Timestamp dt:dt=""int"">0</Timestamp><DateUtc dt:dt=""string"">2024-06-21T20:14:31Z</DateUtc></StartTime><FrequencyChanges><FrequencyChange><Frequency dt:dt=""r8"">10000000</Frequency><Timestamp dt:dt=""r8"">5332317827840</Timestamp><Current dt:dt=""r8"">0</Current><DateUtc dt:dt=""string"">2024-06-21T20:14:31Z</DateUtc></FrequencyChange></FrequencyChanges></Clock>\n",2.0.10.252,2.0.10.356,2.0.10.356,Professional,1.0.0.1
Proc5,,List13,,,,,,,10,3,7,7,3779,3,0,,3,,,,,,,,,,,,,,,,,,,,,,,,,,,,,,,,,,,6,1,6,,,,DelayDiscountingTitrated Backup1,06-21-2024,16:14:31,6/21/2024 8:14:31 PM,3145,1,18,DelayDiscountingTitrated Backup1-3145-1,-2029533887,1,60.045,"<?xml version=""1.0""?>\n<Clock xmlns:dt=""urn:schemas-microsoft-com:datatypes""><Description dt:dt=""string"">E-Prime Primary Realtime Clock</Description><StartTime><Timestamp dt:dt=""int"">0</Timestamp><DateUtc dt:dt=""string"">2024-06-21T20:14:31Z</DateUtc></StartTime><FrequencyChanges><FrequencyChange><Frequency dt:dt=""r8"">10000000</Frequency><Timestamp dt:dt=""r8"">5332317827840</Timestamp><Current dt:dt=""r8"">0</Current><DateUtc dt:dt=""string"">2024-06-21T20:14:31Z</DateUtc></FrequencyChange></FrequencyChanges></Clock>\n",2.0.10.252,2.0.10.356,2.0.10.356,Professional,1.0.0.1
Proc5,,List13,,,,,,,8,1,10,10,9891,1,0,,2,,,,,,,,,,,,,,,,,,,,,,,,,,,,,,,,,,,7,1,7,,,,DelayDiscountingTitrated Backup1,06-21-2024,16:14:31,6/21/2024 8:14:31 PM,3145,1,18,DelayDiscountingTitrated Backup1-3145-1,-2029533887,1,60.045,"<?xml version=""1.0""?>\n<Clock xmlns:dt=""urn:schemas-microsoft-com:datatypes""><Description dt:dt=""string"">E-Prime Primary Realtime Clock</Description><StartTime><Timestamp dt:dt=""int"">0</Timestamp><DateUtc dt:dt=""string"">2024-06-21T20:14:31Z</DateUtc></StartTime><FrequencyChanges><FrequencyChange><Frequency dt:dt=""r8"">10000000</Frequency><Timestamp dt:dt=""r8"">5332317827840</Timestamp><Current dt:dt=""r8"">0</Current><DateUtc dt:dt=""string"">2024-06-21T20:14:31Z</DateUtc></FrequencyChange></FrequencyChanges></Clock>\n",2.0.10.252,2.0.10.356,2.0.10.356,Professional,1.0.0.1
Proc5,,List13,,,,,,,9,3,8,8,312,3,0,,1,,,,,,,,,,,,,,,,,,,,,,,,,,,,,,,,,,,8,1,8,,,,DelayDiscountingTitrated Backup1,06-21-2024,16:14:31,6/21/2024 8:14:31 PM,3145,1,18,DelayDiscountingTitrated Backup1-3145-1,-2029533887,1,60.045,"<?xml version=""1.0""?>\n<Clock xmlns:dt=""urn:schemas-microsoft-com:datatypes""><Description dt:dt=""string"">E-Prime Primary Realtime Clock</Description><StartTime><Timestamp dt:dt=""int"">0</Timestamp><DateUtc dt:dt=""string"">2024-06-21T20:14:31Z</DateUtc></StartTime><FrequencyChanges><FrequencyChange><Frequency dt:dt=""r8"">10000000</Frequency><Timestamp dt:dt=""r8"">5332317827840</Timestamp><Current dt:dt=""r8"">0</Current><DateUtc dt:dt=""string"">2024-06-21T20:14:31Z</DateUtc></FrequencyChange></FrequencyChanges></Clock>\n",2.0.10.252,2.0.10.356,2.0.10.356,Professional,1.0.0.1
Proc5,,List13,,,,,,,9,3,8,9,274,3,0,,,,,,,,,,,,,,,,,,,,,,,,,,,,,,,,,,,,,9,1,9,,,,DelayDiscountingTitrated Backup1,06-21-2024,16:14:31,6/21/2024 8:14:31 PM,3145,1,18,DelayDiscountingTitrated Backup1-3145-1,-2029533887,1,60.045,"<?xml version=""1.0""?>\n<Clock xmlns:dt=""urn:schemas-microsoft-com:datatypes""><Description dt:dt=""string"">E-Prime Primary Realtime Clock</Description><StartTime><Timestamp dt:dt=""int"">0</Timestamp><DateUtc dt:dt=""string"">2024-06-21T20:14:31Z</DateUtc></StartTime><FrequencyChanges><FrequencyChange><Frequency dt:dt=""r8"">10000000</Frequency><Timestamp dt:dt=""r8"">5332317827840</Timestamp><Current dt:dt=""r8"">0</Current><DateUtc dt:dt=""string"">2024-06-21T20:14:31Z</DateUtc></FrequencyChange></FrequencyChanges></Clock>\n",2.0.10.252,2.0.10.356,2.0.10.356,Professional,1.0.0.1
discount5,,List8,,,,,,,,,,,,,,,,200,15 years,5475,,,,,,,,,,,,,,,,,,,,,,,,,,,,,,,,,,,1,2,1,DelayDiscountingTitrated Backup1,06-21-2024,16:14:31,6/21/2024 8:14:31 PM,3145,1,18,DelayDiscountingTitrated Backup1-3145-1,-2029533887,1,60.045,"<?xml version=""1.0""?>\n<Clock xmlns:dt=""urn:schemas-microsoft-com:datatypes""><Description dt:dt=""string"">E-Prime Primary Realtime Clock</Description><StartTime><Timestamp dt:dt=""int"">0</Timestamp><DateUtc dt:dt=""string"">2024-06-21T20:14:31Z</DateUtc></StartTime><FrequencyChanges><FrequencyChange><Frequency dt:dt=""r8"">10000000</Frequency><Timestamp dt:dt=""r8"">5332317827840</Timestamp><Current dt:dt=""r8"">0</Current><DateUtc dt:dt=""string"">2024-06-21T20:14:31Z</DateUtc></FrequencyChange></FrequencyChanges></Clock>\n",2.0.10.252,2.0.10.356,2.0.10.356,Professional,1.0.0.1
fifteenyearproc,,List1,,,,,,,,,,,,,,,,,,,,,,6,1,6,6,,,,,,,,,,,,,,,,,,,,,,,,,,,,,,,DelayDiscountingTitrated Backup1,06-21-2024,16:14:31,6/21/2024 8:14:31 PM,3145,1,18,DelayDiscountingTitrated Backup1-3145-1,-2029533887,1,60.045,"<?xml version=""1.0""?>\n<Clock xmlns:dt=""urn:schemas-microsoft-com:datatypes""><Description dt:dt=""string"">E-Prime Primary Realtime Clock</Description><StartTime><Timestamp dt:dt=""int"">0</Timestamp><DateUtc dt:dt=""string"">2024-06-21T20:14:31Z</DateUtc></StartTime><FrequencyChanges><FrequencyChange><Frequency dt:dt=""r8"">10000000</Frequency><Timestamp dt:dt=""r8"">5332317827840</Timestamp><Current dt:dt=""r8"">0</Current><DateUtc dt:dt=""string"">2024-06-21T20:14:31Z</DateUtc></FrequencyChange></FrequencyChanges></Clock>\n",2.0.10.252,2.0.10.356,2.0.10.356,Professional,1.0.0.1
,,,,,,,,,,,,,,,,,,,,,,,,,,,,,,,,,,,,,,,,,,,,,,,,,,,,,,,,,,DelayDiscountingTitrated Backup1,06-21-2024,16:14:31,6/21/2024 8:14:31 PM,3145,1,18,DelayDiscountingTitrated Backup1-3145-1,-2029533887,1,60.045,"<?xml version=""1.0""?>\n<Clock xmlns:dt=""urn:schemas-microsoft-com:datatypes""><Description dt:dt=""string"">E-Prime Primary Realtime Clock</Description><StartTime><Timestamp dt:dt=""int"">0</Timestamp><DateUtc dt:dt=""string"">2024-06-21T20:14:31Z</DateUtc></StartTime><FrequencyChanges><FrequencyChange><Frequency dt:dt=""r8"">10000000</Frequency><Timestamp dt:dt=""r8"">5332317827840</Timestamp><Current dt:dt=""r8"">0</Current><DateUtc dt:dt=""string"">2024-06-21T20:14:31Z</DateUtc></FrequencyChange></FrequencyChanges></Clock>\n",2.0.10.252,2.0.10.356,2.0.10.356,Professional,1.0.0.1
