Procedure,List10,Running,List10.Cycle,List10.Sample,Slide2.DEVICE,Slide2.RT,Slide2.RESP,Slide4.RT,Slide4.RESP,immed3,respprev,prevalue,imstring,Slide1.DEVICE,Slide1.RT,Slide1.RESP,Slide5.RT,Slide5.RESP,immed5,immed,delaypd,timedays,List5,List5.Cycle,List5.Sample,List1,List1.Cycle,List1.Sample,roundnumber,TextDisplay11.DEVICE,List11,List11.Cycle,List11.Sample,List6,List6.Cycle,List6.Sample,List9,List9.Cycle,List9.Sample,List4,List4.Cycle,List4.Sample,List2,List2.Cycle,List2.Sample,List3,List3.Cycle,List3.Sample,List13,List13.Cycle,List13.Sample,List8,List8.Cycle,List8.Sample,List12,List12.Cycle,List12.Sample,List7,List7.Cycle,List7.Sample,Experiment,SessionDate,SessionTime,SessionStartDateTimeUtc,Subject,Session,Age,DataFile.Basename,RandomSeed,Group,Display.RefreshRate,Clock.Information,StudioVersion,RuntimeVersion,RuntimeVersionExpected,RuntimeCapabilities,ExperimentVersion,TextDisplay14.DEVICE,Slide3.DEVICE
Init2,1,List10,1,1,Keyboard,6577,3,0,,600,3,200,,,,,,,,,,,,,,,,,,,,,,,,,,,,,,,,,,,,,,,,,,,,,,,,,DelayDiscountingTitrated,10-25-2024,12:49:35,10/25/2024 4:49:35 PM,1098,1,10,DelayDiscountingTitrated-1098-1,1778007455,1,75.012,"<?xml version=""1.0""?>\n<Clock xmlns:dt=""urn:schemas-microsoft-com:datatypes""><Description dt:dt=""string"">E-Prime Primary Realtime Clock</Description><StartTime><Timestamp dt:dt=""int"">0</Timestamp><DateUtc dt:dt=""string"">2024-10-25T16:49:35Z</DateUtc></StartTime><FrequencyChanges><FrequencyChange><Frequency dt:dt=""r8"">10000000</Frequency><Timestamp dt:dt=""r8"">2634590366089</Timestamp><Current dt:dt=""r8"">0</Current><DateUtc dt:dt=""string"">2024-10-25T16:49:35Z</DateUtc></FrequencyChange></FrequencyChanges></Clock>\n",3.0.3.43,3.0.3.60,3.0.3.60,Full,1.0.0.8,Keyboard,Keyboard
Proc2,2,List10,1,2,,,,,,400,1,600,600,Keyboard,2089,1,0,,200,,,,,,,,,,,,,,,,,,,,,,,,,,,,,,,,,,,,,,,,,,DelayDiscountingTitrated,10-25-2024,12:49:35,10/25/2024 4:49:35 PM,1098,1,10,DelayDiscountingTitrated-1098-1,1778007455,1,75.012,"<?xml version=""1.0""?>\n<Clock xmlns:dt=""urn:schemas-microsoft-com:datatypes""><Description dt:dt=""string"">E-Prime Primary Realtime Clock</Description><StartTime><Timestamp dt:dt=""int"">0</Timestamp><DateUtc dt:dt=""string"">2024-10-25T16:49:35Z</DateUtc></StartTime><FrequencyChanges><FrequencyChange><Frequency dt:dt=""r8"">10000000</Frequency><Timestamp dt:dt=""r8"">2634590366089</Timestamp><Current dt:dt=""r8"">0</Current><DateUtc dt:dt=""string"">2024-10-25T16:49:35Z</DateUtc></FrequencyChange></FrequencyChanges></Clock>\n",3.0.3.43,3.0.3.60,3.0.3.60,Full,1.0.0.8,Keyboard,Keyboard
Proc2,3,List10,1,3,,,,,,300,1,400,400,Keyboard,1809,1,0,,100,,,,,,,,,,,,,,,,,,,,,,,,,,,,,,,,,,,,,,,,,,DelayDiscountingTitrated,10-25-2024,12:49:35,10/25/2024 4:49:35 PM,1098,1,10,DelayDiscountingTitrated-1098-1,1778007455,1,75.012,"<?xml version=""1.0""?>\n<Clock xmlns:dt=""urn:schemas-microsoft-com:datatypes""><Description dt:dt=""string"">E-Prime Primary Realtime Clock</Description><StartTime><Timestamp dt:dt=""int"">0</Timestamp><DateUtc dt:dt=""string"">2024-10-25T16:49:35Z</DateUtc></StartTime><FrequencyChanges><FrequencyChange><Frequency dt:dt=""r8"">10000000</Frequency><Timestamp dt:dt=""r8"">2634590366089</Timestamp><Current dt:dt=""r8"">0</Current><DateUtc dt:dt=""string"">2024-10-25T16:49:35Z</DateUtc></FrequencyChange></FrequencyChanges></Clock>\n",3.0.3.43,3.0.3.60,3.0.3.60,Full,1.0.0.8,Keyboard,Keyboard
Proc2,4,List10,1,4,,,,,,350,3,300,300,Keyboard,3479,3,0,,50,,,,,,,,,,,,,,,,,,,,,,,,,,,,,,,,,,,,,,,,,,DelayDiscountingTitrated,10-25-2024,12:49:35,10/25/2024 4:49:35 PM,1098,1,10,DelayDiscountingTitrated-1098-1,1778007455,1,75.012,"<?xml version=""1.0""?>\n<Clock xmlns:dt=""urn:schemas-microsoft-com:datatypes""><Description dt:dt=""string"">E-Prime Primary Realtime Clock</Description><StartTime><Timestamp dt:dt=""int"">0</Timestamp><DateUtc dt:dt=""string"">2024-10-25T16:49:35Z</DateUtc></StartTime><FrequencyChanges><FrequencyChange><Frequency dt:dt=""r8"">10000000</Frequency><Timestamp dt:dt=""r8"">2634590366089</Timestamp><Current dt:dt=""r8"">0</Current><DateUtc dt:dt=""string"">2024-10-25T16:49:35Z</DateUtc></FrequencyChange></FrequencyChanges></Clock>\n",3.0.3.43,3.0.3.60,3.0.3.60,Full,1.0.0.8,Keyboard,Keyboard
Proc2,5,List10,1,5,,,,,,375,3,350,350,Keyboard,1976,3,0,,25,,,,,,,,,,,,,,,,,,,,,,,,,,,,,,,,,,,,,,,,,,DelayDiscountingTitrated,10-25-2024,12:49:35,10/25/2024 4:49:35 PM,1098,1,10,DelayDiscountingTitrated-1098-1,1778007455,1,75.012,"<?xml version=""1.0""?>\n<Clock xmlns:dt=""urn:schemas-microsoft-com:datatypes""><Description dt:dt=""string"">E-Prime Primary Realtime Clock</Description><StartTime><Timestamp dt:dt=""int"">0</Timestamp><DateUtc dt:dt=""string"">2024-10-25T16:49:35Z</DateUtc></StartTime><FrequencyChanges><FrequencyChange><Frequency dt:dt=""r8"">10000000</Frequency><Timestamp dt:dt=""r8"">2634590366089</Timestamp><Current dt:dt=""r8"">0</Current><DateUtc dt:dt=""string"">2024-10-25T16:49:35Z</DateUtc></FrequencyChange></FrequencyChanges></Clock>\n",3.0.3.43,3.0.3.60,3.0.3.60,Full,1.0.0.8,Keyboard,Keyboard
Proc2,6,List10,1,6,,,,,,387,3,375,375,Keyboard,2741,3,0,,12,,,,,,,,,,,,,,,,,,,,,,,,,,,,,,,,,,,,,,,,,,DelayDiscountingTitrated,10-25-2024,12:49:35,10/25/2024 4:49:35 PM,1098,1,10,DelayDiscountingTitrated-1098-1,1778007455,1,75.012,"<?xml version=""1.0""?>\n<Clock xmlns:dt=""urn:schemas-microsoft-com:datatypes""><Description dt:dt=""string"">E-Prime Primary Realtime Clock</Description><StartTime><Timestamp dt:dt=""int"">0</Timestamp><DateUtc dt:dt=""string"">2024-10-25T16:49:35Z</DateUtc></StartTime><FrequencyChanges><FrequencyChange><Frequency dt:dt=""r8"">10000000</Frequency><Timestamp dt:dt=""r8"">2634590366089</Timestamp><Current dt:dt=""r8"">0</Current><DateUtc dt:dt=""string"">2024-10-25T16:49:35Z</DateUtc></FrequencyChange></FrequencyChanges></Clock>\n",3.0.3.43,3.0.3.60,3.0.3.60,Full,1.0.0.8,Keyboard,Keyboard
Proc2,7,List10,1,7,,,,,,393,3,387,387,Keyboard,2213,3,0,,6,,,,,,,,,,,,,,,,,,,,,,,,,,,,,,,,,,,,,,,,,,DelayDiscountingTitrated,10-25-2024,12:49:35,10/25/2024 4:49:35 PM,1098,1,10,DelayDiscountingTitrated-1098-1,1778007455,1,75.012,"<?xml version=""1.0""?>\n<Clock xmlns:dt=""urn:schemas-microsoft-com:datatypes""><Description dt:dt=""string"">E-Prime Primary Realtime Clock</Description><StartTime><Timestamp dt:dt=""int"">0</Timestamp><DateUtc dt:dt=""string"">2024-10-25T16:49:35Z</DateUtc></StartTime><FrequencyChanges><FrequencyChange><Frequency dt:dt=""r8"">10000000</Frequency><Timestamp dt:dt=""r8"">2634590366089</Timestamp><Current dt:dt=""r8"">0</Current><DateUtc dt:dt=""string"">2024-10-25T16:49:35Z</DateUtc></FrequencyChange></FrequencyChanges></Clock>\n",3.0.3.43,3.0.3.60,3.0.3.60,Full,1.0.0.8,Keyboard,Keyboard
Proc2,8,List10,1,8,,,,,,396,3,393,393,Keyboard,3169,3,0,,3,,,,,,,,,,,,,,,,,,,,,,,,,,,,,,,,,,,,,,,,,,DelayDiscountingTitrated,10-25-2024,12:49:35,10/25/2024 4:49:35 PM,1098,1,10,DelayDiscountingTitrated-1098-1,1778007455,1,75.012,"<?xml version=""1.0""?>\n<Clock xmlns:dt=""urn:schemas-microsoft-com:datatypes""><Description dt:dt=""string"">E-Prime Primary Realtime Clock</Description><StartTime><Timestamp dt:dt=""int"">0</Timestamp><DateUtc dt:dt=""string"">2024-10-25T16:49:35Z</DateUtc></StartTime><FrequencyChanges><FrequencyChange><Frequency dt:dt=""r8"">10000000</Frequency><Timestamp dt:dt=""r8"">2634590366089</Timestamp><Current dt:dt=""r8"">0</Current><DateUtc dt:dt=""string"">2024-10-25T16:49:35Z</DateUtc></FrequencyChange></FrequencyChanges></Clock>\n",3.0.3.43,3.0.3.60,3.0.3.60,Full,1.0.0.8,Keyboard,Keyboard
Proc2,9,List10,1,9,,,,,,398,3,396,396,Keyboard,1939,3,0,,2,,,,,,,,,,,,,,,,,,,,,,,,,,,,,,,,,,,,,,,,,,DelayDiscountingTitrated,10-25-2024,12:49:35,10/25/2024 4:49:35 PM,1098,1,10,DelayDiscountingTitrated-1098-1,1778007455,1,75.012,"<?xml version=""1.0""?>\n<Clock xmlns:dt=""urn:schemas-microsoft-com:datatypes""><Description dt:dt=""string"">E-Prime Primary Realtime Clock</Description><StartTime><Timestamp dt:dt=""int"">0</Timestamp><DateUtc dt:dt=""string"">2024-10-25T16:49:35Z</DateUtc></StartTime><FrequencyChanges><FrequencyChange><Frequency dt:dt=""r8"">10000000</Frequency><Timestamp dt:dt=""r8"">2634590366089</Timestamp><Current dt:dt=""r8"">0</Current><DateUtc dt:dt=""string"">2024-10-25T16:49:35Z</DateUtc></FrequencyChange></FrequencyChanges></Clock>\n",3.0.3.43,3.0.3.60,3.0.3.60,Full,1.0.0.8,Keyboard,Keyboard
Proc2,10,List10,1,10,,,,,,399,3,398,398,Keyboard,1279,3,0,,1,,,,,,,,,,,,,,,,,,,,,,,,,,,,,,,,,,,,,,,,,,DelayDiscountingTitrated,10-25-2024,12:49:35,10/25/2024 4:49:35 PM,1098,1,10,DelayDiscountingTitrated-1098-1,1778007455,1,75.012,"<?xml version=""1.0""?>\n<Clock xmlns:dt=""urn:schemas-microsoft-com:datatypes""><Description dt:dt=""string"">E-Prime Primary Realtime Clock</Description><StartTime><Timestamp dt:dt=""int"">0</Timestamp><DateUtc dt:dt=""string"">2024-10-25T16:49:35Z</DateUtc></StartTime><FrequencyChanges><FrequencyChange><Frequency dt:dt=""r8"">10000000</Frequency><Timestamp dt:dt=""r8"">2634590366089</Timestamp><Current dt:dt=""r8"">0</Current><DateUtc dt:dt=""string"">2024-10-25T16:49:35Z</DateUtc></FrequencyChange></FrequencyChanges></Clock>\n",3.0.3.43,3.0.3.60,3.0.3.60,Full,1.0.0.8,Keyboard,Keyboard
Proc2,11,List10,1,11,,,,,,399,3,398,399,Keyboard,1470,3,0,,,,,,,,,,,,,,,,,,,,,,,,,,,,,,,,,,,,,,,,,,,,DelayDiscountingTitrated,10-25-2024,12:49:35,10/25/2024 4:49:35 PM,1098,1,10,DelayDiscountingTitrated-1098-1,1778007455,1,75.012,"<?xml version=""1.0""?>\n<Clock xmlns:dt=""urn:schemas-microsoft-com:datatypes""><Description dt:dt=""string"">E-Prime Primary Realtime Clock</Description><StartTime><Timestamp dt:dt=""int"">0</Timestamp><DateUtc dt:dt=""string"">2024-10-25T16:49:35Z</DateUtc></StartTime><FrequencyChanges><FrequencyChange><Frequency dt:dt=""r8"">10000000</Frequency><Timestamp dt:dt=""r8"">2634590366089</Timestamp><Current dt:dt=""r8"">0</Current><DateUtc dt:dt=""string"">2024-10-25T16:49:35Z</DateUtc></FrequencyChange></FrequencyChanges></Clock>\n",3.0.3.43,3.0.3.60,3.0.3.60,Full,1.0.0.8,Keyboard,Keyboard
discount2,,List5,,,,,,,,,,,,,,,,,,200,6 month,180,1,1,1,,,,,,,,,,,,,,,,,,,,,,,,,,,,,,,,,,,,DelayDiscountingTitrated,10-25-2024,12:49:35,10/25/2024 4:49:35 PM,1098,1,10,DelayDiscountingTitrated-1098-1,1778007455,1,75.012,"<?xml version=""1.0""?>\n<Clock xmlns:dt=""urn:schemas-microsoft-com:datatypes""><Description dt:dt=""string"">E-Prime Primary Realtime Clock</Description><StartTime><Timestamp dt:dt=""int"">0</Timestamp><DateUtc dt:dt=""string"">2024-10-25T16:49:35Z</DateUtc></StartTime><FrequencyChanges><FrequencyChange><Frequency dt:dt=""r8"">10000000</Frequency><Timestamp dt:dt=""r8"">2634590366089</Timestamp><Current dt:dt=""r8"">0</Current><DateUtc dt:dt=""string"">2024-10-25T16:49:35Z</DateUtc></FrequencyChange></FrequencyChanges></Clock>\n",3.0.3.43,3.0.3.60,3.0.3.60,Full,1.0.0.8,Keyboard,Keyboard
sixmthproc,,List1,,,,,,,,,,,,,,,,,,,,,,,,3,1,1,1,Keyboard,,,,,,,,,,,,,,,,,,,,,,,,,,,,,,,DelayDiscountingTitrated,10-25-2024,12:49:35,10/25/2024 4:49:35 PM,1098,1,10,DelayDiscountingTitrated-1098-1,1778007455,1,75.012,"<?xml version=""1.0""?>\n<Clock xmlns:dt=""urn:schemas-microsoft-com:datatypes""><Description dt:dt=""string"">E-Prime Primary Realtime Clock</Description><StartTime><Timestamp dt:dt=""int"">0</Timestamp><DateUtc dt:dt=""string"">2024-10-25T16:49:35Z</DateUtc></StartTime><FrequencyChanges><FrequencyChange><Frequency dt:dt=""r8"">10000000</Frequency><Timestamp dt:dt=""r8"">2634590366089</Timestamp><Current dt:dt=""r8"">0</Current><DateUtc dt:dt=""string"">2024-10-25T16:49:35Z</DateUtc></FrequencyChange></FrequencyChanges></Clock>\n",3.0.3.43,3.0.3.60,3.0.3.60,Full,1.0.0.8,Keyboard,Keyboard
Init3,,List11,,,Keyboard,3211,1,0,,100,1,200,,,,,,,,,,,,,,,,,,,1,1,1,,,,,,,,,,,,,,,,,,,,,,,,,,,,DelayDiscountingTitrated,10-25-2024,12:49:35,10/25/2024 4:49:35 PM,1098,1,10,DelayDiscountingTitrated-1098-1,1778007455,1,75.012,"<?xml version=""1.0""?>\n<Clock xmlns:dt=""urn:schemas-microsoft-com:datatypes""><Description dt:dt=""string"">E-Prime Primary Realtime Clock</Description><StartTime><Timestamp dt:dt=""int"">0</Timestamp><DateUtc dt:dt=""string"">2024-10-25T16:49:35Z</DateUtc></StartTime><FrequencyChanges><FrequencyChange><Frequency dt:dt=""r8"">10000000</Frequency><Timestamp dt:dt=""r8"">2634590366089</Timestamp><Current dt:dt=""r8"">0</Current><DateUtc dt:dt=""string"">2024-10-25T16:49:35Z</DateUtc></FrequencyChange></FrequencyChanges></Clock>\n",3.0.3.43,3.0.3.60,3.0.3.60,Full,1.0.0.8,Keyboard,Keyboard
Proc3,,List11,,,,,,,,150,3,100,100,Keyboard,2143,3,0,,50,,,,,,,,,,,,2,1,2,,,,,,,,,,,,,,,,,,,,,,,,,,,,DelayDiscountingTitrated,10-25-2024,12:49:35,10/25/2024 4:49:35 PM,1098,1,10,DelayDiscountingTitrated-1098-1,1778007455,1,75.012,"<?xml version=""1.0""?>\n<Clock xmlns:dt=""urn:schemas-microsoft-com:datatypes""><Description dt:dt=""string"">E-Prime Primary Realtime Clock</Description><StartTime><Timestamp dt:dt=""int"">0</Timestamp><DateUtc dt:dt=""string"">2024-10-25T16:49:35Z</DateUtc></StartTime><FrequencyChanges><FrequencyChange><Frequency dt:dt=""r8"">10000000</Frequency><Timestamp dt:dt=""r8"">2634590366089</Timestamp><Current dt:dt=""r8"">0</Current><DateUtc dt:dt=""string"">2024-10-25T16:49:35Z</DateUtc></FrequencyChange></FrequencyChanges></Clock>\n",3.0.3.43,3.0.3.60,3.0.3.60,Full,1.0.0.8,Keyboard,Keyboard
Proc3,,List11,,,,,,,,175,3,150,150,Keyboard,2172,3,0,,25,,,,,,,,,,,,3,1,3,,,,,,,,,,,,,,,,,,,,,,,,,,,,DelayDiscountingTitrated,10-25-2024,12:49:35,10/25/2024 4:49:35 PM,1098,1,10,DelayDiscountingTitrated-1098-1,1778007455,1,75.012,"<?xml version=""1.0""?>\n<Clock xmlns:dt=""urn:schemas-microsoft-com:datatypes""><Description dt:dt=""string"">E-Prime Primary Realtime Clock</Description><StartTime><Timestamp dt:dt=""int"">0</Timestamp><DateUtc dt:dt=""string"">2024-10-25T16:49:35Z</DateUtc></StartTime><FrequencyChanges><FrequencyChange><Frequency dt:dt=""r8"">10000000</Frequency><Timestamp dt:dt=""r8"">2634590366089</Timestamp><Current dt:dt=""r8"">0</Current><DateUtc dt:dt=""string"">2024-10-25T16:49:35Z</DateUtc></FrequencyChange></FrequencyChanges></Clock>\n",3.0.3.43,3.0.3.60,3.0.3.60,Full,1.0.0.8,Keyboard,Keyboard
Proc3,,List11,,,,,,,,187,3,175,175,Keyboard,1239,3,0,,12,,,,,,,,,,,,4,1,4,,,,,,,,,,,,,,,,,,,,,,,,,,,,DelayDiscountingTitrated,10-25-2024,12:49:35,10/25/2024 4:49:35 PM,1098,1,10,DelayDiscountingTitrated-1098-1,1778007455,1,75.012,"<?xml version=""1.0""?>\n<Clock xmlns:dt=""urn:schemas-microsoft-com:datatypes""><Description dt:dt=""string"">E-Prime Primary Realtime Clock</Description><StartTime><Timestamp dt:dt=""int"">0</Timestamp><DateUtc dt:dt=""string"">2024-10-25T16:49:35Z</DateUtc></StartTime><FrequencyChanges><FrequencyChange><Frequency dt:dt=""r8"">10000000</Frequency><Timestamp dt:dt=""r8"">2634590366089</Timestamp><Current dt:dt=""r8"">0</Current><DateUtc dt:dt=""string"">2024-10-25T16:49:35Z</DateUtc></FrequencyChange></FrequencyChanges></Clock>\n",3.0.3.43,3.0.3.60,3.0.3.60,Full,1.0.0.8,Keyboard,Keyboard
Proc3,,List11,,,,,,,,193,3,187,187,Keyboard,2788,3,0,,6,,,,,,,,,,,,5,1,5,,,,,,,,,,,,,,,,,,,,,,,,,,,,DelayDiscountingTitrated,10-25-2024,12:49:35,10/25/2024 4:49:35 PM,1098,1,10,DelayDiscountingTitrated-1098-1,1778007455,1,75.012,"<?xml version=""1.0""?>\n<Clock xmlns:dt=""urn:schemas-microsoft-com:datatypes""><Description dt:dt=""string"">E-Prime Primary Realtime Clock</Description><StartTime><Timestamp dt:dt=""int"">0</Timestamp><DateUtc dt:dt=""string"">2024-10-25T16:49:35Z</DateUtc></StartTime><FrequencyChanges><FrequencyChange><Frequency dt:dt=""r8"">10000000</Frequency><Timestamp dt:dt=""r8"">2634590366089</Timestamp><Current dt:dt=""r8"">0</Current><DateUtc dt:dt=""string"">2024-10-25T16:49:35Z</DateUtc></FrequencyChange></FrequencyChanges></Clock>\n",3.0.3.43,3.0.3.60,3.0.3.60,Full,1.0.0.8,Keyboard,Keyboard
Proc3,,List11,,,,,,,,190,1,193,193,Keyboard,785,1,0,,3,,,,,,,,,,,,6,1,6,,,,,,,,,,,,,,,,,,,,,,,,,,,,DelayDiscountingTitrated,10-25-2024,12:49:35,10/25/2024 4:49:35 PM,1098,1,10,DelayDiscountingTitrated-1098-1,1778007455,1,75.012,"<?xml version=""1.0""?>\n<Clock xmlns:dt=""urn:schemas-microsoft-com:datatypes""><Description dt:dt=""string"">E-Prime Primary Realtime Clock</Description><StartTime><Timestamp dt:dt=""int"">0</Timestamp><DateUtc dt:dt=""string"">2024-10-25T16:49:35Z</DateUtc></StartTime><FrequencyChanges><FrequencyChange><Frequency dt:dt=""r8"">10000000</Frequency><Timestamp dt:dt=""r8"">2634590366089</Timestamp><Current dt:dt=""r8"">0</Current><DateUtc dt:dt=""string"">2024-10-25T16:49:35Z</DateUtc></FrequencyChange></FrequencyChanges></Clock>\n",3.0.3.43,3.0.3.60,3.0.3.60,Full,1.0.0.8,Keyboard,Keyboard
Proc3,,List11,,,,,,,,192,3,190,190,Keyboard,1278,3,0,,2,,,,,,,,,,,,7,1,7,,,,,,,,,,,,,,,,,,,,,,,,,,,,DelayDiscountingTitrated,10-25-2024,12:49:35,10/25/2024 4:49:35 PM,1098,1,10,DelayDiscountingTitrated-1098-1,1778007455,1,75.012,"<?xml version=""1.0""?>\n<Clock xmlns:dt=""urn:schemas-microsoft-com:datatypes""><Description dt:dt=""string"">E-Prime Primary Realtime Clock</Description><StartTime><Timestamp dt:dt=""int"">0</Timestamp><DateUtc dt:dt=""string"">2024-10-25T16:49:35Z</DateUtc></StartTime><FrequencyChanges><FrequencyChange><Frequency dt:dt=""r8"">10000000</Frequency><Timestamp dt:dt=""r8"">2634590366089</Timestamp><Current dt:dt=""r8"">0</Current><DateUtc dt:dt=""string"">2024-10-25T16:49:35Z</DateUtc></FrequencyChange></FrequencyChanges></Clock>\n",3.0.3.43,3.0.3.60,3.0.3.60,Full,1.0.0.8,Keyboard,Keyboard
Proc3,,List11,,,,,,,,193,3,192,192,Keyboard,2314,3,0,,1,,,,,,,,,,,,8,1,8,,,,,,,,,,,,,,,,,,,,,,,,,,,,DelayDiscountingTitrated,10-25-2024,12:49:35,10/25/2024 4:49:35 PM,1098,1,10,DelayDiscountingTitrated-1098-1,1778007455,1,75.012,"<?xml version=""1.0""?>\n<Clock xmlns:dt=""urn:schemas-microsoft-com:datatypes""><Description dt:dt=""string"">E-Prime Primary Realtime Clock</Description><StartTime><Timestamp dt:dt=""int"">0</Timestamp><DateUtc dt:dt=""string"">2024-10-25T16:49:35Z</DateUtc></StartTime><FrequencyChanges><FrequencyChange><Frequency dt:dt=""r8"">10000000</Frequency><Timestamp dt:dt=""r8"">2634590366089</Timestamp><Current dt:dt=""r8"">0</Current><DateUtc dt:dt=""string"">2024-10-25T16:49:35Z</DateUtc></FrequencyChange></FrequencyChanges></Clock>\n",3.0.3.43,3.0.3.60,3.0.3.60,Full,1.0.0.8,Keyboard,Keyboard
Proc3,,List11,,,,,,,,193,3,192,193,Keyboard,4381,3,0,,,,,,,,,,,,,,9,1,9,,,,,,,,,,,,,,,,,,,,,,,,,,,,DelayDiscountingTitrated,10-25-2024,12:49:35,10/25/2024 4:49:35 PM,1098,1,10,DelayDiscountingTitrated-1098-1,1778007455,1,75.012,"<?xml version=""1.0""?>\n<Clock xmlns:dt=""urn:schemas-microsoft-com:datatypes""><Description dt:dt=""string"">E-Prime Primary Realtime Clock</Description><StartTime><Timestamp dt:dt=""int"">0</Timestamp><DateUtc dt:dt=""string"">2024-10-25T16:49:35Z</DateUtc></StartTime><FrequencyChanges><FrequencyChange><Frequency dt:dt=""r8"">10000000</Frequency><Timestamp dt:dt=""r8"">2634590366089</Timestamp><Current dt:dt=""r8"">0</Current><DateUtc dt:dt=""string"">2024-10-25T16:49:35Z</DateUtc></FrequencyChange></FrequencyChanges></Clock>\n",3.0.3.43,3.0.3.60,3.0.3.60,Full,1.0.0.8,Keyboard,Keyboard
discount3,,List6,,,,,,,,,,,,,,,,,,200,1 year,365,,,,,,,,,,,,1,1,1,,,,,,,,,,,,,,,,,,,,,,,,,DelayDiscountingTitrated,10-25-2024,12:49:35,10/25/2024 4:49:35 PM,1098,1,10,DelayDiscountingTitrated-1098-1,1778007455,1,75.012,"<?xml version=""1.0""?>\n<Clock xmlns:dt=""urn:schemas-microsoft-com:datatypes""><Description dt:dt=""string"">E-Prime Primary Realtime Clock</Description><StartTime><Timestamp dt:dt=""int"">0</Timestamp><DateUtc dt:dt=""string"">2024-10-25T16:49:35Z</DateUtc></StartTime><FrequencyChanges><FrequencyChange><Frequency dt:dt=""r8"">10000000</Frequency><Timestamp dt:dt=""r8"">2634590366089</Timestamp><Current dt:dt=""r8"">0</Current><DateUtc dt:dt=""string"">2024-10-25T16:49:35Z</DateUtc></FrequencyChange></FrequencyChanges></Clock>\n",3.0.3.43,3.0.3.60,3.0.3.60,Full,1.0.0.8,Keyboard,Keyboard
oneyearproc,,List1,,,,,,,,,,,,,,,,,,,,,,,,4,1,2,2,Keyboard,,,,,,,,,,,,,,,,,,,,,,,,,,,,,,,DelayDiscountingTitrated,10-25-2024,12:49:35,10/25/2024 4:49:35 PM,1098,1,10,DelayDiscountingTitrated-1098-1,1778007455,1,75.012,"<?xml version=""1.0""?>\n<Clock xmlns:dt=""urn:schemas-microsoft-com:datatypes""><Description dt:dt=""string"">E-Prime Primary Realtime Clock</Description><StartTime><Timestamp dt:dt=""int"">0</Timestamp><DateUtc dt:dt=""string"">2024-10-25T16:49:35Z</DateUtc></StartTime><FrequencyChanges><FrequencyChange><Frequency dt:dt=""r8"">10000000</Frequency><Timestamp dt:dt=""r8"">2634590366089</Timestamp><Current dt:dt=""r8"">0</Current><DateUtc dt:dt=""string"">2024-10-25T16:49:35Z</DateUtc></FrequencyChange></FrequencyChanges></Clock>\n",3.0.3.43,3.0.3.60,3.0.3.60,Full,1.0.0.8,Keyboard,Keyboard
Init1,,List9,,,Keyboard,2623,1,0,,250,1,500,,,,,,,,,,,,,,,,,,,,,,,,,1,1,1,,,,,,,,,,,,,,,,,,,,,,DelayDiscountingTitrated,10-25-2024,12:49:35,10/25/2024 4:49:35 PM,1098,1,10,DelayDiscountingTitrated-1098-1,1778007455,1,75.012,"<?xml version=""1.0""?>\n<Clock xmlns:dt=""urn:schemas-microsoft-com:datatypes""><Description dt:dt=""string"">E-Prime Primary Realtime Clock</Description><StartTime><Timestamp dt:dt=""int"">0</Timestamp><DateUtc dt:dt=""string"">2024-10-25T16:49:35Z</DateUtc></StartTime><FrequencyChanges><FrequencyChange><Frequency dt:dt=""r8"">10000000</Frequency><Timestamp dt:dt=""r8"">2634590366089</Timestamp><Current dt:dt=""r8"">0</Current><DateUtc dt:dt=""string"">2024-10-25T16:49:35Z</DateUtc></FrequencyChange></FrequencyChanges></Clock>\n",3.0.3.43,3.0.3.60,3.0.3.60,Full,1.0.0.8,Keyboard,Keyboard
Proc1,,List9,,,,,,,,375,3,250,250,Keyboard,909,3,0,,125,,,,,,,,,,,,,,,,,,2,1,2,,,,,,,,,,,,,,,,,,,,,,DelayDiscountingTitrated,10-25-2024,12:49:35,10/25/2024 4:49:35 PM,1098,1,10,DelayDiscountingTitrated-1098-1,1778007455,1,75.012,"<?xml version=""1.0""?>\n<Clock xmlns:dt=""urn:schemas-microsoft-com:datatypes""><Description dt:dt=""string"">E-Prime Primary Realtime Clock</Description><StartTime><Timestamp dt:dt=""int"">0</Timestamp><DateUtc dt:dt=""string"">2024-10-25T16:49:35Z</DateUtc></StartTime><FrequencyChanges><FrequencyChange><Frequency dt:dt=""r8"">10000000</Frequency><Timestamp dt:dt=""r8"">2634590366089</Timestamp><Current dt:dt=""r8"">0</Current><DateUtc dt:dt=""string"">2024-10-25T16:49:35Z</DateUtc></FrequencyChange></FrequencyChanges></Clock>\n",3.0.3.43,3.0.3.60,3.0.3.60,Full,1.0.0.8,Keyboard,Keyboard
Proc1,,List9,,,,,,,,437,3,375,375,Keyboard,1154,3,0,,62,,,,,,,,,,,,,,,,,,3,1,3,,,,,,,,,,,,,,,,,,,,,,DelayDiscountingTitrated,10-25-2024,12:49:35,10/25/2024 4:49:35 PM,1098,1,10,DelayDiscountingTitrated-1098-1,1778007455,1,75.012,"<?xml version=""1.0""?>\n<Clock xmlns:dt=""urn:schemas-microsoft-com:datatypes""><Description dt:dt=""string"">E-Prime Primary Realtime Clock</Description><StartTime><Timestamp dt:dt=""int"">0</Timestamp><DateUtc dt:dt=""string"">2024-10-25T16:49:35Z</DateUtc></StartTime><FrequencyChanges><FrequencyChange><Frequency dt:dt=""r8"">10000000</Frequency><Timestamp dt:dt=""r8"">2634590366089</Timestamp><Current dt:dt=""r8"">0</Current><DateUtc dt:dt=""string"">2024-10-25T16:49:35Z</DateUtc></FrequencyChange></FrequencyChanges></Clock>\n",3.0.3.43,3.0.3.60,3.0.3.60,Full,1.0.0.8,Keyboard,Keyboard
Proc1,,List9,,,,,,,,468,3,437,437,Keyboard,1051,3,0,,31,,,,,,,,,,,,,,,,,,4,1,4,,,,,,,,,,,,,,,,,,,,,,DelayDiscountingTitrated,10-25-2024,12:49:35,10/25/2024 4:49:35 PM,1098,1,10,DelayDiscountingTitrated-1098-1,1778007455,1,75.012,"<?xml version=""1.0""?>\n<Clock xmlns:dt=""urn:schemas-microsoft-com:datatypes""><Description dt:dt=""string"">E-Prime Primary Realtime Clock</Description><StartTime><Timestamp dt:dt=""int"">0</Timestamp><DateUtc dt:dt=""string"">2024-10-25T16:49:35Z</DateUtc></StartTime><FrequencyChanges><FrequencyChange><Frequency dt:dt=""r8"">10000000</Frequency><Timestamp dt:dt=""r8"">2634590366089</Timestamp><Current dt:dt=""r8"">0</Current><DateUtc dt:dt=""string"">2024-10-25T16:49:35Z</DateUtc></FrequencyChange></FrequencyChanges></Clock>\n",3.0.3.43,3.0.3.60,3.0.3.60,Full,1.0.0.8,Keyboard,Keyboard
Proc1,,List9,,,,,,,,484,3,468,468,Keyboard,1255,3,0,,16,,,,,,,,,,,,,,,,,,5,1,5,,,,,,,,,,,,,,,,,,,,,,DelayDiscountingTitrated,10-25-2024,12:49:35,10/25/2024 4:49:35 PM,1098,1,10,DelayDiscountingTitrated-1098-1,1778007455,1,75.012,"<?xml version=""1.0""?>\n<Clock xmlns:dt=""urn:schemas-microsoft-com:datatypes""><Description dt:dt=""string"">E-Prime Primary Realtime Clock</Description><StartTime><Timestamp dt:dt=""int"">0</Timestamp><DateUtc dt:dt=""string"">2024-10-25T16:49:35Z</DateUtc></StartTime><FrequencyChanges><FrequencyChange><Frequency dt:dt=""r8"">10000000</Frequency><Timestamp dt:dt=""r8"">2634590366089</Timestamp><Current dt:dt=""r8"">0</Current><DateUtc dt:dt=""string"">2024-10-25T16:49:35Z</DateUtc></FrequencyChange></FrequencyChanges></Clock>\n",3.0.3.43,3.0.3.60,3.0.3.60,Full,1.0.0.8,Keyboard,Keyboard
Proc1,,List9,,,,,,,,492,3,484,484,Keyboard,2141,3,0,,8,,,,,,,,,,,,,,,,,,6,1,6,,,,,,,,,,,,,,,,,,,,,,DelayDiscountingTitrated,10-25-2024,12:49:35,10/25/2024 4:49:35 PM,1098,1,10,DelayDiscountingTitrated-1098-1,1778007455,1,75.012,"<?xml version=""1.0""?>\n<Clock xmlns:dt=""urn:schemas-microsoft-com:datatypes""><Description dt:dt=""string"">E-Prime Primary Realtime Clock</Description><StartTime><Timestamp dt:dt=""int"">0</Timestamp><DateUtc dt:dt=""string"">2024-10-25T16:49:35Z</DateUtc></StartTime><FrequencyChanges><FrequencyChange><Frequency dt:dt=""r8"">10000000</Frequency><Timestamp dt:dt=""r8"">2634590366089</Timestamp><Current dt:dt=""r8"">0</Current><DateUtc dt:dt=""string"">2024-10-25T16:49:35Z</DateUtc></FrequencyChange></FrequencyChanges></Clock>\n",3.0.3.43,3.0.3.60,3.0.3.60,Full,1.0.0.8,Keyboard,Keyboard
Proc1,,List9,,,,,,,,496,3,492,492,Keyboard,1007,3,0,,4,,,,,,,,,,,,,,,,,,7,1,7,,,,,,,,,,,,,,,,,,,,,,DelayDiscountingTitrated,10-25-2024,12:49:35,10/25/2024 4:49:35 PM,1098,1,10,DelayDiscountingTitrated-1098-1,1778007455,1,75.012,"<?xml version=""1.0""?>\n<Clock xmlns:dt=""urn:schemas-microsoft-com:datatypes""><Description dt:dt=""string"">E-Prime Primary Realtime Clock</Description><StartTime><Timestamp dt:dt=""int"">0</Timestamp><DateUtc dt:dt=""string"">2024-10-25T16:49:35Z</DateUtc></StartTime><FrequencyChanges><FrequencyChange><Frequency dt:dt=""r8"">10000000</Frequency><Timestamp dt:dt=""r8"">2634590366089</Timestamp><Current dt:dt=""r8"">0</Current><DateUtc dt:dt=""string"">2024-10-25T16:49:35Z</DateUtc></FrequencyChange></FrequencyChanges></Clock>\n",3.0.3.43,3.0.3.60,3.0.3.60,Full,1.0.0.8,Keyboard,Keyboard
Proc1,,List9,,,,,,,,498,3,496,496,Keyboard,973,3,0,,2,,,,,,,,,,,,,,,,,,8,1,8,,,,,,,,,,,,,,,,,,,,,,DelayDiscountingTitrated,10-25-2024,12:49:35,10/25/2024 4:49:35 PM,1098,1,10,DelayDiscountingTitrated-1098-1,1778007455,1,75.012,"<?xml version=""1.0""?>\n<Clock xmlns:dt=""urn:schemas-microsoft-com:datatypes""><Description dt:dt=""string"">E-Prime Primary Realtime Clock</Description><StartTime><Timestamp dt:dt=""int"">0</Timestamp><DateUtc dt:dt=""string"">2024-10-25T16:49:35Z</DateUtc></StartTime><FrequencyChanges><FrequencyChange><Frequency dt:dt=""r8"">10000000</Frequency><Timestamp dt:dt=""r8"">2634590366089</Timestamp><Current dt:dt=""r8"">0</Current><DateUtc dt:dt=""string"">2024-10-25T16:49:35Z</DateUtc></FrequencyChange></FrequencyChanges></Clock>\n",3.0.3.43,3.0.3.60,3.0.3.60,Full,1.0.0.8,Keyboard,Keyboard
Proc1,,List9,,,,,,,,499,3,498,498,Keyboard,913,3,0,,1,,,,,,,,,,,,,,,,,,9,1,9,,,,,,,,,,,,,,,,,,,,,,DelayDiscountingTitrated,10-25-2024,12:49:35,10/25/2024 4:49:35 PM,1098,1,10,DelayDiscountingTitrated-1098-1,1778007455,1,75.012,"<?xml version=""1.0""?>\n<Clock xmlns:dt=""urn:schemas-microsoft-com:datatypes""><Description dt:dt=""string"">E-Prime Primary Realtime Clock</Description><StartTime><Timestamp dt:dt=""int"">0</Timestamp><DateUtc dt:dt=""string"">2024-10-25T16:49:35Z</DateUtc></StartTime><FrequencyChanges><FrequencyChange><Frequency dt:dt=""r8"">10000000</Frequency><Timestamp dt:dt=""r8"">2634590366089</Timestamp><Current dt:dt=""r8"">0</Current><DateUtc dt:dt=""string"">2024-10-25T16:49:35Z</DateUtc></FrequencyChange></FrequencyChanges></Clock>\n",3.0.3.43,3.0.3.60,3.0.3.60,Full,1.0.0.8,Keyboard,Keyboard
Proc1,,List9,,,,,,,,499,3,498,499,Keyboard,1986,3,0,,,,,,,,,,,,,,,,,,,,10,1,10,,,,,,,,,,,,,,,,,,,,,,DelayDiscountingTitrated,10-25-2024,12:49:35,10/25/2024 4:49:35 PM,1098,1,10,DelayDiscountingTitrated-1098-1,1778007455,1,75.012,"<?xml version=""1.0""?>\n<Clock xmlns:dt=""urn:schemas-microsoft-com:datatypes""><Description dt:dt=""string"">E-Prime Primary Realtime Clock</Description><StartTime><Timestamp dt:dt=""int"">0</Timestamp><DateUtc dt:dt=""string"">2024-10-25T16:49:35Z</DateUtc></StartTime><FrequencyChanges><FrequencyChange><Frequency dt:dt=""r8"">10000000</Frequency><Timestamp dt:dt=""r8"">2634590366089</Timestamp><Current dt:dt=""r8"">0</Current><DateUtc dt:dt=""string"">2024-10-25T16:49:35Z</DateUtc></FrequencyChange></FrequencyChanges></Clock>\n",3.0.3.43,3.0.3.60,3.0.3.60,Full,1.0.0.8,Keyboard,Keyboard
discount1,,List4,,,,,,,,,,,,,,,,,,500,1 month,30,,,,,,,,,,,,,,,,,,2,1,1,,,,,,,,,,,,,,,,,,,DelayDiscountingTitrated,10-25-2024,12:49:35,10/25/2024 4:49:35 PM,1098,1,10,DelayDiscountingTitrated-1098-1,1778007455,1,75.012,"<?xml version=""1.0""?>\n<Clock xmlns:dt=""urn:schemas-microsoft-com:datatypes""><Description dt:dt=""string"">E-Prime Primary Realtime Clock</Description><StartTime><Timestamp dt:dt=""int"">0</Timestamp><DateUtc dt:dt=""string"">2024-10-25T16:49:35Z</DateUtc></StartTime><FrequencyChanges><FrequencyChange><Frequency dt:dt=""r8"">10000000</Frequency><Timestamp dt:dt=""r8"">2634590366089</Timestamp><Current dt:dt=""r8"">0</Current><DateUtc dt:dt=""string"">2024-10-25T16:49:35Z</DateUtc></FrequencyChange></FrequencyChanges></Clock>\n",3.0.3.43,3.0.3.60,3.0.3.60,Full,1.0.0.8,Keyboard,Keyboard
onemthproc,,List1,,,,,,,,,,,,,,,,,,,,,,,,2,1,3,3,Keyboard,,,,,,,,,,,,,,,,,,,,,,,,,,,,,,,DelayDiscountingTitrated,10-25-2024,12:49:35,10/25/2024 4:49:35 PM,1098,1,10,DelayDiscountingTitrated-1098-1,1778007455,1,75.012,"<?xml version=""1.0""?>\n<Clock xmlns:dt=""urn:schemas-microsoft-com:datatypes""><Description dt:dt=""string"">E-Prime Primary Realtime Clock</Description><StartTime><Timestamp dt:dt=""int"">0</Timestamp><DateUtc dt:dt=""string"">2024-10-25T16:49:35Z</DateUtc></StartTime><FrequencyChanges><FrequencyChange><Frequency dt:dt=""r8"">10000000</Frequency><Timestamp dt:dt=""r8"">2634590366089</Timestamp><Current dt:dt=""r8"">0</Current><DateUtc dt:dt=""string"">2024-10-25T16:49:35Z</DateUtc></FrequencyChange></FrequencyChanges></Clock>\n",3.0.3.43,3.0.3.60,3.0.3.60,Full,1.0.0.8,Keyboard,Keyboard
TrialProcInit,,List2,,,Keyboard,1516,3,0,,600,3,200,,,,,,,,,,,,,,,,,,,,,,,,,,,,,,,1,1,1,,,,,,,,,,,,,,,,DelayDiscountingTitrated,10-25-2024,12:49:35,10/25/2024 4:49:35 PM,1098,1,10,DelayDiscountingTitrated-1098-1,1778007455,1,75.012,"<?xml version=""1.0""?>\n<Clock xmlns:dt=""urn:schemas-microsoft-com:datatypes""><Description dt:dt=""string"">E-Prime Primary Realtime Clock</Description><StartTime><Timestamp dt:dt=""int"">0</Timestamp><DateUtc dt:dt=""string"">2024-10-25T16:49:35Z</DateUtc></StartTime><FrequencyChanges><FrequencyChange><Frequency dt:dt=""r8"">10000000</Frequency><Timestamp dt:dt=""r8"">2634590366089</Timestamp><Current dt:dt=""r8"">0</Current><DateUtc dt:dt=""string"">2024-10-25T16:49:35Z</DateUtc></FrequencyChange></FrequencyChanges></Clock>\n",3.0.3.43,3.0.3.60,3.0.3.60,Full,1.0.0.8,Keyboard,Keyboard
TrialProc,,List2,,,,,,,,800,3,600,600,Keyboard,794,3,0,,200,,,,,,,,,,,,,,,,,,,,,,,,2,1,2,,,,,,,,,,,,,,,,DelayDiscountingTitrated,10-25-2024,12:49:35,10/25/2024 4:49:35 PM,1098,1,10,DelayDiscountingTitrated-1098-1,1778007455,1,75.012,"<?xml version=""1.0""?>\n<Clock xmlns:dt=""urn:schemas-microsoft-com:datatypes""><Description dt:dt=""string"">E-Prime Primary Realtime Clock</Description><StartTime><Timestamp dt:dt=""int"">0</Timestamp><DateUtc dt:dt=""string"">2024-10-25T16:49:35Z</DateUtc></StartTime><FrequencyChanges><FrequencyChange><Frequency dt:dt=""r8"">10000000</Frequency><Timestamp dt:dt=""r8"">2634590366089</Timestamp><Current dt:dt=""r8"">0</Current><DateUtc dt:dt=""string"">2024-10-25T16:49:35Z</DateUtc></FrequencyChange></FrequencyChanges></Clock>\n",3.0.3.43,3.0.3.60,3.0.3.60,Full,1.0.0.8,Keyboard,Keyboard
TrialProc,,List2,,,,,,,,900,3,800,800,Keyboard,967,3,0,,100,,,,,,,,,,,,,,,,,,,,,,,,3,1,3,,,,,,,,,,,,,,,,DelayDiscountingTitrated,10-25-2024,12:49:35,10/25/2024 4:49:35 PM,1098,1,10,DelayDiscountingTitrated-1098-1,1778007455,1,75.012,"<?xml version=""1.0""?>\n<Clock xmlns:dt=""urn:schemas-microsoft-com:datatypes""><Description dt:dt=""string"">E-Prime Primary Realtime Clock</Description><StartTime><Timestamp dt:dt=""int"">0</Timestamp><DateUtc dt:dt=""string"">2024-10-25T16:49:35Z</DateUtc></StartTime><FrequencyChanges><FrequencyChange><Frequency dt:dt=""r8"">10000000</Frequency><Timestamp dt:dt=""r8"">2634590366089</Timestamp><Current dt:dt=""r8"">0</Current><DateUtc dt:dt=""string"">2024-10-25T16:49:35Z</DateUtc></FrequencyChange></FrequencyChanges></Clock>\n",3.0.3.43,3.0.3.60,3.0.3.60,Full,1.0.0.8,Keyboard,Keyboard
TrialProc,,List2,,,,,,,,950,3,900,900,Keyboard,1877,3,0,,50,,,,,,,,,,,,,,,,,,,,,,,,4,1,4,,,,,,,,,,,,,,,,DelayDiscountingTitrated,10-25-2024,12:49:35,10/25/2024 4:49:35 PM,1098,1,10,DelayDiscountingTitrated-1098-1,1778007455,1,75.012,"<?xml version=""1.0""?>\n<Clock xmlns:dt=""urn:schemas-microsoft-com:datatypes""><Description dt:dt=""string"">E-Prime Primary Realtime Clock</Description><StartTime><Timestamp dt:dt=""int"">0</Timestamp><DateUtc dt:dt=""string"">2024-10-25T16:49:35Z</DateUtc></StartTime><FrequencyChanges><FrequencyChange><Frequency dt:dt=""r8"">10000000</Frequency><Timestamp dt:dt=""r8"">2634590366089</Timestamp><Current dt:dt=""r8"">0</Current><DateUtc dt:dt=""string"">2024-10-25T16:49:35Z</DateUtc></FrequencyChange></FrequencyChanges></Clock>\n",3.0.3.43,3.0.3.60,3.0.3.60,Full,1.0.0.8,Keyboard,Keyboard
TrialProc,,List2,,,,,,,,975,3,950,950,Keyboard,1008,3,0,,25,,,,,,,,,,,,,,,,,,,,,,,,5,1,5,,,,,,,,,,,,,,,,DelayDiscountingTitrated,10-25-2024,12:49:35,10/25/2024 4:49:35 PM,1098,1,10,DelayDiscountingTitrated-1098-1,1778007455,1,75.012,"<?xml version=""1.0""?>\n<Clock xmlns:dt=""urn:schemas-microsoft-com:datatypes""><Description dt:dt=""string"">E-Prime Primary Realtime Clock</Description><StartTime><Timestamp dt:dt=""int"">0</Timestamp><DateUtc dt:dt=""string"">2024-10-25T16:49:35Z</DateUtc></StartTime><FrequencyChanges><FrequencyChange><Frequency dt:dt=""r8"">10000000</Frequency><Timestamp dt:dt=""r8"">2634590366089</Timestamp><Current dt:dt=""r8"">0</Current><DateUtc dt:dt=""string"">2024-10-25T16:49:35Z</DateUtc></FrequencyChange></FrequencyChanges></Clock>\n",3.0.3.43,3.0.3.60,3.0.3.60,Full,1.0.0.8,Keyboard,Keyboard
TrialProc,,List2,,,,,,,,963,1,975,975,Keyboard,2282,1,0,,12,,,,,,,,,,,,,,,,,,,,,,,,6,1,6,,,,,,,,,,,,,,,,DelayDiscountingTitrated,10-25-2024,12:49:35,10/25/2024 4:49:35 PM,1098,1,10,DelayDiscountingTitrated-1098-1,1778007455,1,75.012,"<?xml version=""1.0""?>\n<Clock xmlns:dt=""urn:schemas-microsoft-com:datatypes""><Description dt:dt=""string"">E-Prime Primary Realtime Clock</Description><StartTime><Timestamp dt:dt=""int"">0</Timestamp><DateUtc dt:dt=""string"">2024-10-25T16:49:35Z</DateUtc></StartTime><FrequencyChanges><FrequencyChange><Frequency dt:dt=""r8"">10000000</Frequency><Timestamp dt:dt=""r8"">2634590366089</Timestamp><Current dt:dt=""r8"">0</Current><DateUtc dt:dt=""string"">2024-10-25T16:49:35Z</DateUtc></FrequencyChange></FrequencyChanges></Clock>\n",3.0.3.43,3.0.3.60,3.0.3.60,Full,1.0.0.8,Keyboard,Keyboard
TrialProc,,List2,,,,,,,,969,3,963,963,Keyboard,929,3,0,,6,,,,,,,,,,,,,,,,,,,,,,,,7,1,7,,,,,,,,,,,,,,,,DelayDiscountingTitrated,10-25-2024,12:49:35,10/25/2024 4:49:35 PM,1098,1,10,DelayDiscountingTitrated-1098-1,1778007455,1,75.012,"<?xml version=""1.0""?>\n<Clock xmlns:dt=""urn:schemas-microsoft-com:datatypes""><Description dt:dt=""string"">E-Prime Primary Realtime Clock</Description><StartTime><Timestamp dt:dt=""int"">0</Timestamp><DateUtc dt:dt=""string"">2024-10-25T16:49:35Z</DateUtc></StartTime><FrequencyChanges><FrequencyChange><Frequency dt:dt=""r8"">10000000</Frequency><Timestamp dt:dt=""r8"">2634590366089</Timestamp><Current dt:dt=""r8"">0</Current><DateUtc dt:dt=""string"">2024-10-25T16:49:35Z</DateUtc></FrequencyChange></FrequencyChanges></Clock>\n",3.0.3.43,3.0.3.60,3.0.3.60,Full,1.0.0.8,Keyboard,Keyboard
TrialProc,,List2,,,,,,,,972,3,969,969,Keyboard,1261,3,0,,3,,,,,,,,,,,,,,,,,,,,,,,,8,1,8,,,,,,,,,,,,,,,,DelayDiscountingTitrated,10-25-2024,12:49:35,10/25/2024 4:49:35 PM,1098,1,10,DelayDiscountingTitrated-1098-1,1778007455,1,75.012,"<?xml version=""1.0""?>\n<Clock xmlns:dt=""urn:schemas-microsoft-com:datatypes""><Description dt:dt=""string"">E-Prime Primary Realtime Clock</Description><StartTime><Timestamp dt:dt=""int"">0</Timestamp><DateUtc dt:dt=""string"">2024-10-25T16:49:35Z</DateUtc></StartTime><FrequencyChanges><FrequencyChange><Frequency dt:dt=""r8"">10000000</Frequency><Timestamp dt:dt=""r8"">2634590366089</Timestamp><Current dt:dt=""r8"">0</Current><DateUtc dt:dt=""string"">2024-10-25T16:49:35Z</DateUtc></FrequencyChange></FrequencyChanges></Clock>\n",3.0.3.43,3.0.3.60,3.0.3.60,Full,1.0.0.8,Keyboard,Keyboard
TrialProc,,List2,,,,,,,,974,3,972,972,Keyboard,961,3,0,,2,,,,,,,,,,,,,,,,,,,,,,,,9,1,9,,,,,,,,,,,,,,,,DelayDiscountingTitrated,10-25-2024,12:49:35,10/25/2024 4:49:35 PM,1098,1,10,DelayDiscountingTitrated-1098-1,1778007455,1,75.012,"<?xml version=""1.0""?>\n<Clock xmlns:dt=""urn:schemas-microsoft-com:datatypes""><Description dt:dt=""string"">E-Prime Primary Realtime Clock</Description><StartTime><Timestamp dt:dt=""int"">0</Timestamp><DateUtc dt:dt=""string"">2024-10-25T16:49:35Z</DateUtc></StartTime><FrequencyChanges><FrequencyChange><Frequency dt:dt=""r8"">10000000</Frequency><Timestamp dt:dt=""r8"">2634590366089</Timestamp><Current dt:dt=""r8"">0</Current><DateUtc dt:dt=""string"">2024-10-25T16:49:35Z</DateUtc></FrequencyChange></FrequencyChanges></Clock>\n",3.0.3.43,3.0.3.60,3.0.3.60,Full,1.0.0.8,Keyboard,Keyboard
TrialProc,,List2,,,,,,,,975,3,974,974,Keyboard,1307,3,0,,1,,,,,,,,,,,,,,,,,,,,,,,,10,1,10,,,,,,,,,,,,,,,,DelayDiscountingTitrated,10-25-2024,12:49:35,10/25/2024 4:49:35 PM,1098,1,10,DelayDiscountingTitrated-1098-1,1778007455,1,75.012,"<?xml version=""1.0""?>\n<Clock xmlns:dt=""urn:schemas-microsoft-com:datatypes""><Description dt:dt=""string"">E-Prime Primary Realtime Clock</Description><StartTime><Timestamp dt:dt=""int"">0</Timestamp><DateUtc dt:dt=""string"">2024-10-25T16:49:35Z</DateUtc></StartTime><FrequencyChanges><FrequencyChange><Frequency dt:dt=""r8"">10000000</Frequency><Timestamp dt:dt=""r8"">2634590366089</Timestamp><Current dt:dt=""r8"">0</Current><DateUtc dt:dt=""string"">2024-10-25T16:49:35Z</DateUtc></FrequencyChange></FrequencyChanges></Clock>\n",3.0.3.43,3.0.3.60,3.0.3.60,Full,1.0.0.8,Keyboard,Keyboard
TrialProc,,List2,,,,,,,,975,3,974,975,Keyboard,2386,3,0,,,,,,,,,,,,,,,,,,,,,,,,,,11,1,11,,,,,,,,,,,,,,,,DelayDiscountingTitrated,10-25-2024,12:49:35,10/25/2024 4:49:35 PM,1098,1,10,DelayDiscountingTitrated-1098-1,1778007455,1,75.012,"<?xml version=""1.0""?>\n<Clock xmlns:dt=""urn:schemas-microsoft-com:datatypes""><Description dt:dt=""string"">E-Prime Primary Realtime Clock</Description><StartTime><Timestamp dt:dt=""int"">0</Timestamp><DateUtc dt:dt=""string"">2024-10-25T16:49:35Z</DateUtc></StartTime><FrequencyChanges><FrequencyChange><Frequency dt:dt=""r8"">10000000</Frequency><Timestamp dt:dt=""r8"">2634590366089</Timestamp><Current dt:dt=""r8"">0</Current><DateUtc dt:dt=""string"">2024-10-25T16:49:35Z</DateUtc></FrequencyChange></FrequencyChanges></Clock>\n",3.0.3.43,3.0.3.60,3.0.3.60,Full,1.0.0.8,Keyboard,Keyboard
discount,,List3,,,,,,,,,,,,,,,,,,200,1 week,7,,,,,,,,,,,,,,,,,,,,,,,,1,1,1,,,,,,,,,,,,,DelayDiscountingTitrated,10-25-2024,12:49:35,10/25/2024 4:49:35 PM,1098,1,10,DelayDiscountingTitrated-1098-1,1778007455,1,75.012,"<?xml version=""1.0""?>\n<Clock xmlns:dt=""urn:schemas-microsoft-com:datatypes""><Description dt:dt=""string"">E-Prime Primary Realtime Clock</Description><StartTime><Timestamp dt:dt=""int"">0</Timestamp><DateUtc dt:dt=""string"">2024-10-25T16:49:35Z</DateUtc></StartTime><FrequencyChanges><FrequencyChange><Frequency dt:dt=""r8"">10000000</Frequency><Timestamp dt:dt=""r8"">2634590366089</Timestamp><Current dt:dt=""r8"">0</Current><DateUtc dt:dt=""string"">2024-10-25T16:49:35Z</DateUtc></FrequencyChange></FrequencyChanges></Clock>\n",3.0.3.43,3.0.3.60,3.0.3.60,Full,1.0.0.8,Keyboard,Keyboard
onewkproc,,List1,,,,,,,,,,,,,,,,,,,,,,,,1,1,4,4,Keyboard,,,,,,,,,,,,,,,,,,,,,,,,,,,,,,,DelayDiscountingTitrated,10-25-2024,12:49:35,10/25/2024 4:49:35 PM,1098,1,10,DelayDiscountingTitrated-1098-1,1778007455,1,75.012,"<?xml version=""1.0""?>\n<Clock xmlns:dt=""urn:schemas-microsoft-com:datatypes""><Description dt:dt=""string"">E-Prime Primary Realtime Clock</Description><StartTime><Timestamp dt:dt=""int"">0</Timestamp><DateUtc dt:dt=""string"">2024-10-25T16:49:35Z</DateUtc></StartTime><FrequencyChanges><FrequencyChange><Frequency dt:dt=""r8"">10000000</Frequency><Timestamp dt:dt=""r8"">2634590366089</Timestamp><Current dt:dt=""r8"">0</Current><DateUtc dt:dt=""string"">2024-10-25T16:49:35Z</DateUtc></FrequencyChange></FrequencyChanges></Clock>\n",3.0.3.43,3.0.3.60,3.0.3.60,Full,1.0.0.8,Keyboard,Keyboard
Init5,,List13,,,Keyboard,3150,1,0,,100,1,200,,,,,,,,,,,,,,,,,,,,,,,,,,,,,,,,,,,,,1,1,1,,,,,,,,,,DelayDiscountingTitrated,10-25-2024,12:49:35,10/25/2024 4:49:35 PM,1098,1,10,DelayDiscountingTitrated-1098-1,1778007455,1,75.012,"<?xml version=""1.0""?>\n<Clock xmlns:dt=""urn:schemas-microsoft-com:datatypes""><Description dt:dt=""string"">E-Prime Primary Realtime Clock</Description><StartTime><Timestamp dt:dt=""int"">0</Timestamp><DateUtc dt:dt=""string"">2024-10-25T16:49:35Z</DateUtc></StartTime><FrequencyChanges><FrequencyChange><Frequency dt:dt=""r8"">10000000</Frequency><Timestamp dt:dt=""r8"">2634590366089</Timestamp><Current dt:dt=""r8"">0</Current><DateUtc dt:dt=""string"">2024-10-25T16:49:35Z</DateUtc></FrequencyChange></FrequencyChanges></Clock>\n",3.0.3.43,3.0.3.60,3.0.3.60,Full,1.0.0.8,Keyboard,Keyboard
Proc5,,List13,,,,,,,,50,1,100,100,Keyboard,2252,1,0,,50,,,,,,,,,,,,,,,,,,,,,,,,,,,,,,2,1,2,,,,,,,,,,DelayDiscountingTitrated,10-25-2024,12:49:35,10/25/2024 4:49:35 PM,1098,1,10,DelayDiscountingTitrated-1098-1,1778007455,1,75.012,"<?xml version=""1.0""?>\n<Clock xmlns:dt=""urn:schemas-microsoft-com:datatypes""><Description dt:dt=""string"">E-Prime Primary Realtime Clock</Description><StartTime><Timestamp dt:dt=""int"">0</Timestamp><DateUtc dt:dt=""string"">2024-10-25T16:49:35Z</DateUtc></StartTime><FrequencyChanges><FrequencyChange><Frequency dt:dt=""r8"">10000000</Frequency><Timestamp dt:dt=""r8"">2634590366089</Timestamp><Current dt:dt=""r8"">0</Current><DateUtc dt:dt=""string"">2024-10-25T16:49:35Z</DateUtc></FrequencyChange></FrequencyChanges></Clock>\n",3.0.3.43,3.0.3.60,3.0.3.60,Full,1.0.0.8,Keyboard,Keyboard
Proc5,,List13,,,,,,,,25,1,50,50,Keyboard,2099,1,0,,25,,,,,,,,,,,,,,,,,,,,,,,,,,,,,,3,1,3,,,,,,,,,,DelayDiscountingTitrated,10-25-2024,12:49:35,10/25/2024 4:49:35 PM,1098,1,10,DelayDiscountingTitrated-1098-1,1778007455,1,75.012,"<?xml version=""1.0""?>\n<Clock xmlns:dt=""urn:schemas-microsoft-com:datatypes""><Description dt:dt=""string"">E-Prime Primary Realtime Clock</Description><StartTime><Timestamp dt:dt=""int"">0</Timestamp><DateUtc dt:dt=""string"">2024-10-25T16:49:35Z</DateUtc></StartTime><FrequencyChanges><FrequencyChange><Frequency dt:dt=""r8"">10000000</Frequency><Timestamp dt:dt=""r8"">2634590366089</Timestamp><Current dt:dt=""r8"">0</Current><DateUtc dt:dt=""string"">2024-10-25T16:49:35Z</DateUtc></FrequencyChange></FrequencyChanges></Clock>\n",3.0.3.43,3.0.3.60,3.0.3.60,Full,1.0.0.8,Keyboard,Keyboard
Proc5,,List13,,,,,,,,13,1,25,25,Keyboard,5158,1,0,,12,,,,,,,,,,,,,,,,,,,,,,,,,,,,,,4,1,4,,,,,,,,,,DelayDiscountingTitrated,10-25-2024,12:49:35,10/25/2024 4:49:35 PM,1098,1,10,DelayDiscountingTitrated-1098-1,1778007455,1,75.012,"<?xml version=""1.0""?>\n<Clock xmlns:dt=""urn:schemas-microsoft-com:datatypes""><Description dt:dt=""string"">E-Prime Primary Realtime Clock</Description><StartTime><Timestamp dt:dt=""int"">0</Timestamp><DateUtc dt:dt=""string"">2024-10-25T16:49:35Z</DateUtc></StartTime><FrequencyChanges><FrequencyChange><Frequency dt:dt=""r8"">10000000</Frequency><Timestamp dt:dt=""r8"">2634590366089</Timestamp><Current dt:dt=""r8"">0</Current><DateUtc dt:dt=""string"">2024-10-25T16:49:35Z</DateUtc></FrequencyChange></FrequencyChanges></Clock>\n",3.0.3.43,3.0.3.60,3.0.3.60,Full,1.0.0.8,Keyboard,Keyboard
Proc5,,List13,,,,,,,,7,1,13,13,Keyboard,1323,1,0,,6,,,,,,,,,,,,,,,,,,,,,,,,,,,,,,5,1,5,,,,,,,,,,DelayDiscountingTitrated,10-25-2024,12:49:35,10/25/2024 4:49:35 PM,1098,1,10,DelayDiscountingTitrated-1098-1,1778007455,1,75.012,"<?xml version=""1.0""?>\n<Clock xmlns:dt=""urn:schemas-microsoft-com:datatypes""><Description dt:dt=""string"">E-Prime Primary Realtime Clock</Description><StartTime><Timestamp dt:dt=""int"">0</Timestamp><DateUtc dt:dt=""string"">2024-10-25T16:49:35Z</DateUtc></StartTime><FrequencyChanges><FrequencyChange><Frequency dt:dt=""r8"">10000000</Frequency><Timestamp dt:dt=""r8"">2634590366089</Timestamp><Current dt:dt=""r8"">0</Current><DateUtc dt:dt=""string"">2024-10-25T16:49:35Z</DateUtc></FrequencyChange></FrequencyChanges></Clock>\n",3.0.3.43,3.0.3.60,3.0.3.60,Full,1.0.0.8,Keyboard,Keyboard
Proc5,,List13,,,,,,,,3,1,7,7,Keyboard,1416,1,0,,4,,,,,,,,,,,,,,,,,,,,,,,,,,,,,,6,1,6,,,,,,,,,,DelayDiscountingTitrated,10-25-2024,12:49:35,10/25/2024 4:49:35 PM,1098,1,10,DelayDiscountingTitrated-1098-1,1778007455,1,75.012,"<?xml version=""1.0""?>\n<Clock xmlns:dt=""urn:schemas-microsoft-com:datatypes""><Description dt:dt=""string"">E-Prime Primary Realtime Clock</Description><StartTime><Timestamp dt:dt=""int"">0</Timestamp><DateUtc dt:dt=""string"">2024-10-25T16:49:35Z</DateUtc></StartTime><FrequencyChanges><FrequencyChange><Frequency dt:dt=""r8"">10000000</Frequency><Timestamp dt:dt=""r8"">2634590366089</Timestamp><Current dt:dt=""r8"">0</Current><DateUtc dt:dt=""string"">2024-10-25T16:49:35Z</DateUtc></FrequencyChange></FrequencyChanges></Clock>\n",3.0.3.43,3.0.3.60,3.0.3.60,Full,1.0.0.8,Keyboard,Keyboard
Proc5,,List13,,,,,,,,5,3,3,3,Keyboard,1363,3,0,,2,,,,,,,,,,,,,,,,,,,,,,,,,,,,,,7,1,7,,,,,,,,,,DelayDiscountingTitrated,10-25-2024,12:49:35,10/25/2024 4:49:35 PM,1098,1,10,DelayDiscountingTitrated-1098-1,1778007455,1,75.012,"<?xml version=""1.0""?>\n<Clock xmlns:dt=""urn:schemas-microsoft-com:datatypes""><Description dt:dt=""string"">E-Prime Primary Realtime Clock</Description><StartTime><Timestamp dt:dt=""int"">0</Timestamp><DateUtc dt:dt=""string"">2024-10-25T16:49:35Z</DateUtc></StartTime><FrequencyChanges><FrequencyChange><Frequency dt:dt=""r8"">10000000</Frequency><Timestamp dt:dt=""r8"">2634590366089</Timestamp><Current dt:dt=""r8"">0</Current><DateUtc dt:dt=""string"">2024-10-25T16:49:35Z</DateUtc></FrequencyChange></FrequencyChanges></Clock>\n",3.0.3.43,3.0.3.60,3.0.3.60,Full,1.0.0.8,Keyboard,Keyboard
Proc5,,List13,,,,,,,,6,3,5,5,Keyboard,847,3,0,,1,,,,,,,,,,,,,,,,,,,,,,,,,,,,,,8,1,8,,,,,,,,,,DelayDiscountingTitrated,10-25-2024,12:49:35,10/25/2024 4:49:35 PM,1098,1,10,DelayDiscountingTitrated-1098-1,1778007455,1,75.012,"<?xml version=""1.0""?>\n<Clock xmlns:dt=""urn:schemas-microsoft-com:datatypes""><Description dt:dt=""string"">E-Prime Primary Realtime Clock</Description><StartTime><Timestamp dt:dt=""int"">0</Timestamp><DateUtc dt:dt=""string"">2024-10-25T16:49:35Z</DateUtc></StartTime><FrequencyChanges><FrequencyChange><Frequency dt:dt=""r8"">10000000</Frequency><Timestamp dt:dt=""r8"">2634590366089</Timestamp><Current dt:dt=""r8"">0</Current><DateUtc dt:dt=""string"">2024-10-25T16:49:35Z</DateUtc></FrequencyChange></FrequencyChanges></Clock>\n",3.0.3.43,3.0.3.60,3.0.3.60,Full,1.0.0.8,Keyboard,Keyboard
Proc5,,List13,,,,,,,,6,3,5,6,Keyboard,929,3,0,,,,,,,,,,,,,,,,,,,,,,,,,,,,,,,,9,1,9,,,,,,,,,,DelayDiscountingTitrated,10-25-2024,12:49:35,10/25/2024 4:49:35 PM,1098,1,10,DelayDiscountingTitrated-1098-1,1778007455,1,75.012,"<?xml version=""1.0""?>\n<Clock xmlns:dt=""urn:schemas-microsoft-com:datatypes""><Description dt:dt=""string"">E-Prime Primary Realtime Clock</Description><StartTime><Timestamp dt:dt=""int"">0</Timestamp><DateUtc dt:dt=""string"">2024-10-25T16:49:35Z</DateUtc></StartTime><FrequencyChanges><FrequencyChange><Frequency dt:dt=""r8"">10000000</Frequency><Timestamp dt:dt=""r8"">2634590366089</Timestamp><Current dt:dt=""r8"">0</Current><DateUtc dt:dt=""string"">2024-10-25T16:49:35Z</DateUtc></FrequencyChange></FrequencyChanges></Clock>\n",3.0.3.43,3.0.3.60,3.0.3.60,Full,1.0.0.8,Keyboard,Keyboard
discount5,,List8,,,,,,,,,,,,,,,,,,200,15 years,5475,,,,,,,,,,,,,,,,,,,,,,,,,,,,,,1,2,1,,,,,,,DelayDiscountingTitrated,10-25-2024,12:49:35,10/25/2024 4:49:35 PM,1098,1,10,DelayDiscountingTitrated-1098-1,1778007455,1,75.012,"<?xml version=""1.0""?>\n<Clock xmlns:dt=""urn:schemas-microsoft-com:datatypes""><Description dt:dt=""string"">E-Prime Primary Realtime Clock</Description><StartTime><Timestamp dt:dt=""int"">0</Timestamp><DateUtc dt:dt=""string"">2024-10-25T16:49:35Z</DateUtc></StartTime><FrequencyChanges><FrequencyChange><Frequency dt:dt=""r8"">10000000</Frequency><Timestamp dt:dt=""r8"">2634590366089</Timestamp><Current dt:dt=""r8"">0</Current><DateUtc dt:dt=""string"">2024-10-25T16:49:35Z</DateUtc></FrequencyChange></FrequencyChanges></Clock>\n",3.0.3.43,3.0.3.60,3.0.3.60,Full,1.0.0.8,Keyboard,Keyboard
fifteenyearproc,,List1,,,,,,,,,,,,,,,,,,,,,,,,6,1,5,5,Keyboard,,,,,,,,,,,,,,,,,,,,,,,,,,,,,,,DelayDiscountingTitrated,10-25-2024,12:49:35,10/25/2024 4:49:35 PM,1098,1,10,DelayDiscountingTitrated-1098-1,1778007455,1,75.012,"<?xml version=""1.0""?>\n<Clock xmlns:dt=""urn:schemas-microsoft-com:datatypes""><Description dt:dt=""string"">E-Prime Primary Realtime Clock</Description><StartTime><Timestamp dt:dt=""int"">0</Timestamp><DateUtc dt:dt=""string"">2024-10-25T16:49:35Z</DateUtc></StartTime><FrequencyChanges><FrequencyChange><Frequency dt:dt=""r8"">10000000</Frequency><Timestamp dt:dt=""r8"">2634590366089</Timestamp><Current dt:dt=""r8"">0</Current><DateUtc dt:dt=""string"">2024-10-25T16:49:35Z</DateUtc></FrequencyChange></FrequencyChanges></Clock>\n",3.0.3.43,3.0.3.60,3.0.3.60,Full,1.0.0.8,Keyboard,Keyboard
Init4,,List12,,,Keyboard,4121,3,0,,600,3,200,,,,,,,,,,,,,,,,,,,,,,,,,,,,,,,,,,,,,,,,,,,1,1,1,,,,DelayDiscountingTitrated,10-25-2024,12:49:35,10/25/2024 4:49:35 PM,1098,1,10,DelayDiscountingTitrated-1098-1,1778007455,1,75.012,"<?xml version=""1.0""?>\n<Clock xmlns:dt=""urn:schemas-microsoft-com:datatypes""><Description dt:dt=""string"">E-Prime Primary Realtime Clock</Description><StartTime><Timestamp dt:dt=""int"">0</Timestamp><DateUtc dt:dt=""string"">2024-10-25T16:49:35Z</DateUtc></StartTime><FrequencyChanges><FrequencyChange><Frequency dt:dt=""r8"">10000000</Frequency><Timestamp dt:dt=""r8"">2634590366089</Timestamp><Current dt:dt=""r8"">0</Current><DateUtc dt:dt=""string"">2024-10-25T16:49:35Z</DateUtc></FrequencyChange></FrequencyChanges></Clock>\n",3.0.3.43,3.0.3.60,3.0.3.60,Full,1.0.0.8,Keyboard,Keyboard
Proc4,,List12,,,,,,,,400,1,600,600,Keyboard,1054,1,0,,200,,,,,,,,,,,,,,,,,,,,,,,,,,,,,,,,,,,,2,1,2,,,,DelayDiscountingTitrated,10-25-2024,12:49:35,10/25/2024 4:49:35 PM,1098,1,10,DelayDiscountingTitrated-1098-1,1778007455,1,75.012,"<?xml version=""1.0""?>\n<Clock xmlns:dt=""urn:schemas-microsoft-com:datatypes""><Description dt:dt=""string"">E-Prime Primary Realtime Clock</Description><StartTime><Timestamp dt:dt=""int"">0</Timestamp><DateUtc dt:dt=""string"">2024-10-25T16:49:35Z</DateUtc></StartTime><FrequencyChanges><FrequencyChange><Frequency dt:dt=""r8"">10000000</Frequency><Timestamp dt:dt=""r8"">2634590366089</Timestamp><Current dt:dt=""r8"">0</Current><DateUtc dt:dt=""string"">2024-10-25T16:49:35Z</DateUtc></FrequencyChange></FrequencyChanges></Clock>\n",3.0.3.43,3.0.3.60,3.0.3.60,Full,1.0.0.8,Keyboard,Keyboard
Proc4,,List12,,,,,,,,300,1,400,400,Keyboard,2268,1,0,,100,,,,,,,,,,,,,,,,,,,,,,,,,,,,,,,,,,,,3,1,3,,,,DelayDiscountingTitrated,10-25-2024,12:49:35,10/25/2024 4:49:35 PM,1098,1,10,DelayDiscountingTitrated-1098-1,1778007455,1,75.012,"<?xml version=""1.0""?>\n<Clock xmlns:dt=""urn:schemas-microsoft-com:datatypes""><Description dt:dt=""string"">E-Prime Primary Realtime Clock</Description><StartTime><Timestamp dt:dt=""int"">0</Timestamp><DateUtc dt:dt=""string"">2024-10-25T16:49:35Z</DateUtc></StartTime><FrequencyChanges><FrequencyChange><Frequency dt:dt=""r8"">10000000</Frequency><Timestamp dt:dt=""r8"">2634590366089</Timestamp><Current dt:dt=""r8"">0</Current><DateUtc dt:dt=""string"">2024-10-25T16:49:35Z</DateUtc></FrequencyChange></FrequencyChanges></Clock>\n",3.0.3.43,3.0.3.60,3.0.3.60,Full,1.0.0.8,Keyboard,Keyboard
Proc4,,List12,,,,,,,,350,3,300,300,Keyboard,2698,3,0,,50,,,,,,,,,,,,,,,,,,,,,,,,,,,,,,,,,,,,4,1,4,,,,DelayDiscountingTitrated,10-25-2024,12:49:35,10/25/2024 4:49:35 PM,1098,1,10,DelayDiscountingTitrated-1098-1,1778007455,1,75.012,"<?xml version=""1.0""?>\n<Clock xmlns:dt=""urn:schemas-microsoft-com:datatypes""><Description dt:dt=""string"">E-Prime Primary Realtime Clock</Description><StartTime><Timestamp dt:dt=""int"">0</Timestamp><DateUtc dt:dt=""string"">2024-10-25T16:49:35Z</DateUtc></StartTime><FrequencyChanges><FrequencyChange><Frequency dt:dt=""r8"">10000000</Frequency><Timestamp dt:dt=""r8"">2634590366089</Timestamp><Current dt:dt=""r8"">0</Current><DateUtc dt:dt=""string"">2024-10-25T16:49:35Z</DateUtc></FrequencyChange></FrequencyChanges></Clock>\n",3.0.3.43,3.0.3.60,3.0.3.60,Full,1.0.0.8,Keyboard,Keyboard
Proc4,,List12,,,,,,,,325,1,350,350,Keyboard,4300,1,0,,25,,,,,,,,,,,,,,,,,,,,,,,,,,,,,,,,,,,,5,1,5,,,,DelayDiscountingTitrated,10-25-2024,12:49:35,10/25/2024 4:49:35 PM,1098,1,10,DelayDiscountingTitrated-1098-1,1778007455,1,75.012,"<?xml version=""1.0""?>\n<Clock xmlns:dt=""urn:schemas-microsoft-com:datatypes""><Description dt:dt=""string"">E-Prime Primary Realtime Clock</Description><StartTime><Timestamp dt:dt=""int"">0</Timestamp><DateUtc dt:dt=""string"">2024-10-25T16:49:35Z</DateUtc></StartTime><FrequencyChanges><FrequencyChange><Frequency dt:dt=""r8"">10000000</Frequency><Timestamp dt:dt=""r8"">2634590366089</Timestamp><Current dt:dt=""r8"">0</Current><DateUtc dt:dt=""string"">2024-10-25T16:49:35Z</DateUtc></FrequencyChange></FrequencyChanges></Clock>\n",3.0.3.43,3.0.3.60,3.0.3.60,Full,1.0.0.8,Keyboard,Keyboard
Proc4,,List12,,,,,,,,313,1,325,325,Keyboard,1934,1,0,,12,,,,,,,,,,,,,,,,,,,,,,,,,,,,,,,,,,,,6,1,6,,,,DelayDiscountingTitrated,10-25-2024,12:49:35,10/25/2024 4:49:35 PM,1098,1,10,DelayDiscountingTitrated-1098-1,1778007455,1,75.012,"<?xml version=""1.0""?>\n<Clock xmlns:dt=""urn:schemas-microsoft-com:datatypes""><Description dt:dt=""string"">E-Prime Primary Realtime Clock</Description><StartTime><Timestamp dt:dt=""int"">0</Timestamp><DateUtc dt:dt=""string"">2024-10-25T16:49:35Z</DateUtc></StartTime><FrequencyChanges><FrequencyChange><Frequency dt:dt=""r8"">10000000</Frequency><Timestamp dt:dt=""r8"">2634590366089</Timestamp><Current dt:dt=""r8"">0</Current><DateUtc dt:dt=""string"">2024-10-25T16:49:35Z</DateUtc></FrequencyChange></FrequencyChanges></Clock>\n",3.0.3.43,3.0.3.60,3.0.3.60,Full,1.0.0.8,Keyboard,Keyboard
Proc4,,List12,,,,,,,,307,1,313,313,Keyboard,1161,1,0,,6,,,,,,,,,,,,,,,,,,,,,,,,,,,,,,,,,,,,7,1,7,,,,DelayDiscountingTitrated,10-25-2024,12:49:35,10/25/2024 4:49:35 PM,1098,1,10,DelayDiscountingTitrated-1098-1,1778007455,1,75.012,"<?xml version=""1.0""?>\n<Clock xmlns:dt=""urn:schemas-microsoft-com:datatypes""><Description dt:dt=""string"">E-Prime Primary Realtime Clock</Description><StartTime><Timestamp dt:dt=""int"">0</Timestamp><DateUtc dt:dt=""string"">2024-10-25T16:49:35Z</DateUtc></StartTime><FrequencyChanges><FrequencyChange><Frequency dt:dt=""r8"">10000000</Frequency><Timestamp dt:dt=""r8"">2634590366089</Timestamp><Current dt:dt=""r8"">0</Current><DateUtc dt:dt=""string"">2024-10-25T16:49:35Z</DateUtc></FrequencyChange></FrequencyChanges></Clock>\n",3.0.3.43,3.0.3.60,3.0.3.60,Full,1.0.0.8,Keyboard,Keyboard
Proc4,,List12,,,,,,,,304,1,307,307,Keyboard,1725,1,0,,3,,,,,,,,,,,,,,,,,,,,,,,,,,,,,,,,,,,,8,1,8,,,,DelayDiscountingTitrated,10-25-2024,12:49:35,10/25/2024 4:49:35 PM,1098,1,10,DelayDiscountingTitrated-1098-1,1778007455,1,75.012,"<?xml version=""1.0""?>\n<Clock xmlns:dt=""urn:schemas-microsoft-com:datatypes""><Description dt:dt=""string"">E-Prime Primary Realtime Clock</Description><StartTime><Timestamp dt:dt=""int"">0</Timestamp><DateUtc dt:dt=""string"">2024-10-25T16:49:35Z</DateUtc></StartTime><FrequencyChanges><FrequencyChange><Frequency dt:dt=""r8"">10000000</Frequency><Timestamp dt:dt=""r8"">2634590366089</Timestamp><Current dt:dt=""r8"">0</Current><DateUtc dt:dt=""string"">2024-10-25T16:49:35Z</DateUtc></FrequencyChange></FrequencyChanges></Clock>\n",3.0.3.43,3.0.3.60,3.0.3.60,Full,1.0.0.8,Keyboard,Keyboard
Proc4,,List12,,,,,,,,302,1,304,304,Keyboard,2580,1,0,,2,,,,,,,,,,,,,,,,,,,,,,,,,,,,,,,,,,,,9,1,9,,,,DelayDiscountingTitrated,10-25-2024,12:49:35,10/25/2024 4:49:35 PM,1098,1,10,DelayDiscountingTitrated-1098-1,1778007455,1,75.012,"<?xml version=""1.0""?>\n<Clock xmlns:dt=""urn:schemas-microsoft-com:datatypes""><Description dt:dt=""string"">E-Prime Primary Realtime Clock</Description><StartTime><Timestamp dt:dt=""int"">0</Timestamp><DateUtc dt:dt=""string"">2024-10-25T16:49:35Z</DateUtc></StartTime><FrequencyChanges><FrequencyChange><Frequency dt:dt=""r8"">10000000</Frequency><Timestamp dt:dt=""r8"">2634590366089</Timestamp><Current dt:dt=""r8"">0</Current><DateUtc dt:dt=""string"">2024-10-25T16:49:35Z</DateUtc></FrequencyChange></FrequencyChanges></Clock>\n",3.0.3.43,3.0.3.60,3.0.3.60,Full,1.0.0.8,Keyboard,Keyboard
Proc4,,List12,,,,,,,,301,1,302,302,Keyboard,1145,1,0,,1,,,,,,,,,,,,,,,,,,,,,,,,,,,,,,,,,,,,10,1,10,,,,DelayDiscountingTitrated,10-25-2024,12:49:35,10/25/2024 4:49:35 PM,1098,1,10,DelayDiscountingTitrated-1098-1,1778007455,1,75.012,"<?xml version=""1.0""?>\n<Clock xmlns:dt=""urn:schemas-microsoft-com:datatypes""><Description dt:dt=""string"">E-Prime Primary Realtime Clock</Description><StartTime><Timestamp dt:dt=""int"">0</Timestamp><DateUtc dt:dt=""string"">2024-10-25T16:49:35Z</DateUtc></StartTime><FrequencyChanges><FrequencyChange><Frequency dt:dt=""r8"">10000000</Frequency><Timestamp dt:dt=""r8"">2634590366089</Timestamp><Current dt:dt=""r8"">0</Current><DateUtc dt:dt=""string"">2024-10-25T16:49:35Z</DateUtc></FrequencyChange></FrequencyChanges></Clock>\n",3.0.3.43,3.0.3.60,3.0.3.60,Full,1.0.0.8,Keyboard,Keyboard
Proc4,,List12,,,,,,,,301,1,302,301,Keyboard,1388,1,0,,,,,,,,,,,,,,,,,,,,,,,,,,,,,,,,,,,,,,11,1,11,,,,DelayDiscountingTitrated,10-25-2024,12:49:35,10/25/2024 4:49:35 PM,1098,1,10,DelayDiscountingTitrated-1098-1,1778007455,1,75.012,"<?xml version=""1.0""?>\n<Clock xmlns:dt=""urn:schemas-microsoft-com:datatypes""><Description dt:dt=""string"">E-Prime Primary Realtime Clock</Description><StartTime><Timestamp dt:dt=""int"">0</Timestamp><DateUtc dt:dt=""string"">2024-10-25T16:49:35Z</DateUtc></StartTime><FrequencyChanges><FrequencyChange><Frequency dt:dt=""r8"">10000000</Frequency><Timestamp dt:dt=""r8"">2634590366089</Timestamp><Current dt:dt=""r8"">0</Current><DateUtc dt:dt=""string"">2024-10-25T16:49:35Z</DateUtc></FrequencyChange></FrequencyChanges></Clock>\n",3.0.3.43,3.0.3.60,3.0.3.60,Full,1.0.0.8,Keyboard,Keyboard
discount4,,List7,,,,,,,,,,,,,,,,,,200,5 years,1825,,,,,,,,,,,,,,,,,,,,,,,,,,,,,,,,,,,,1,1,1,DelayDiscountingTitrated,10-25-2024,12:49:35,10/25/2024 4:49:35 PM,1098,1,10,DelayDiscountingTitrated-1098-1,1778007455,1,75.012,"<?xml version=""1.0""?>\n<Clock xmlns:dt=""urn:schemas-microsoft-com:datatypes""><Description dt:dt=""string"">E-Prime Primary Realtime Clock</Description><StartTime><Timestamp dt:dt=""int"">0</Timestamp><DateUtc dt:dt=""string"">2024-10-25T16:49:35Z</DateUtc></StartTime><FrequencyChanges><FrequencyChange><Frequency dt:dt=""r8"">10000000</Frequency><Timestamp dt:dt=""r8"">2634590366089</Timestamp><Current dt:dt=""r8"">0</Current><DateUtc dt:dt=""string"">2024-10-25T16:49:35Z</DateUtc></FrequencyChange></FrequencyChanges></Clock>\n",3.0.3.43,3.0.3.60,3.0.3.60,Full,1.0.0.8,Keyboard,Keyboard
fiveyearproc,,List1,,,,,,,,,,,,,,,,,,,,,,,,5,1,6,6,Keyboard,,,,,,,,,,,,,,,,,,,,,,,,,,,,,,,DelayDiscountingTitrated,10-25-2024,12:49:35,10/25/2024 4:49:35 PM,1098,1,10,DelayDiscountingTitrated-1098-1,1778007455,1,75.012,"<?xml version=""1.0""?>\n<Clock xmlns:dt=""urn:schemas-microsoft-com:datatypes""><Description dt:dt=""string"">E-Prime Primary Realtime Clock</Description><StartTime><Timestamp dt:dt=""int"">0</Timestamp><DateUtc dt:dt=""string"">2024-10-25T16:49:35Z</DateUtc></StartTime><FrequencyChanges><FrequencyChange><Frequency dt:dt=""r8"">10000000</Frequency><Timestamp dt:dt=""r8"">2634590366089</Timestamp><Current dt:dt=""r8"">0</Current><DateUtc dt:dt=""string"">2024-10-25T16:49:35Z</DateUtc></FrequencyChange></FrequencyChanges></Clock>\n",3.0.3.43,3.0.3.60,3.0.3.60,Full,1.0.0.8,Keyboard,Keyboard
,,,,,,,,,,,,,,,,,,,,,,,,,,,,,,,,,,,,,,,,,,,,,,,,,,,,,,,,,,,,,DelayDiscountingTitrated,10-25-2024,12:49:35,10/25/2024 4:49:35 PM,1098,1,10,DelayDiscountingTitrated-1098-1,1778007455,1,75.012,"<?xml version=""1.0""?>\n<Clock xmlns:dt=""urn:schemas-microsoft-com:datatypes""><Description dt:dt=""string"">E-Prime Primary Realtime Clock</Description><StartTime><Timestamp dt:dt=""int"">0</Timestamp><DateUtc dt:dt=""string"">2024-10-25T16:49:35Z</DateUtc></StartTime><FrequencyChanges><FrequencyChange><Frequency dt:dt=""r8"">10000000</Frequency><Timestamp dt:dt=""r8"">2634590366089</Timestamp><Current dt:dt=""r8"">0</Current><DateUtc dt:dt=""string"">2024-10-25T16:49:35Z</DateUtc></FrequencyChange></FrequencyChanges></Clock>\n",3.0.3.43,3.0.3.60,3.0.3.60,Full,1.0.0.8,Keyboard,Keyboard
