Procedure,List13,Running,List13.Cycle,List13.Sample,Slide2.RT,Slide2.RESP,Slide4.RT,Slide4.RESP,immed3,respprev,prevalue,imstring,Slide1.RT,Slide1.RESP,Slide5.RT,Slide5.RESP,immed5,immed,delaypd,timedays,List8,List8.Cycle,List8.Sample,List1,List1.Cycle,List1.Sample,roundnumber,List10,List10.Cycle,List10.Sample,List5,List5.Cycle,List5.Sample,List2,List2.Cycle,List2.Sample,List3,List3.Cycle,List3.Sample,List11,List11.Cycle,List11.Sample,List6,List6.Cycle,List6.Sample,List9,List9.Cycle,List9.Sample,List4,List4.Cycle,List4.Sample,List12,List12.Cycle,List12.Sample,List7,List7.Cycle,List7.Sample,Experiment,SessionDate,SessionTime,SessionStartDateTimeUtc,Subject,Session,Age,DataFile.Basename,RandomSeed,Group,Display.RefreshRate,Clock.Information,StudioVersion,RuntimeVersion,RuntimeVersionExpected,RuntimeCapabilities,ExperimentVersion
Init5,1,List13,1,1,2504,1,0,,250,1,500,,,,,,,,,,,,,,,,,,,,,,,,,,,,,,,,,,,,,,,,,,,,,,,DelayDiscountingTitrated,01-28-2024,17:34:27,,3118,1,21,DelayDiscountingTitrated-3118-1,-950758890,1,60.018,"<?xml version=""1.0""?>\n<Clock xmlns:dt=""urn:schemas-microsoft-com:datatypes""><Description dt:dt=""string"">E-Prime Primary Realtime Clock</Description><StartTime><Timestamp dt:dt=""int"">0</Timestamp><DateUtc dt:dt=""string"">2024-01-28T22:34:26Z</DateUtc></StartTime><FrequencyChanges><FrequencyChange><Frequency dt:dt=""r8"">10000000</Frequency><Timestamp dt:dt=""r8"">8112240492101</Timestamp><Current dt:dt=""r8"">0</Current><DateUtc dt:dt=""string"">2024-01-28T22:34:26Z</DateUtc></FrequencyChange></FrequencyChanges></Clock>\n",2.0.10.252,2.0.10.356,2.0.10.356,Professional,1.0.0.6
Proc5,2,List13,1,2,,,,,125,1,250,250,2219,1,0,,125,,,,,,,,,,,,,,,,,,,,,,,,,,,,,,,,,,,,,,,,,DelayDiscountingTitrated,01-28-2024,17:34:27,,3118,1,21,DelayDiscountingTitrated-3118-1,-950758890,1,60.018,"<?xml version=""1.0""?>\n<Clock xmlns:dt=""urn:schemas-microsoft-com:datatypes""><Description dt:dt=""string"">E-Prime Primary Realtime Clock</Description><StartTime><Timestamp dt:dt=""int"">0</Timestamp><DateUtc dt:dt=""string"">2024-01-28T22:34:26Z</DateUtc></StartTime><FrequencyChanges><FrequencyChange><Frequency dt:dt=""r8"">10000000</Frequency><Timestamp dt:dt=""r8"">8112240492101</Timestamp><Current dt:dt=""r8"">0</Current><DateUtc dt:dt=""string"">2024-01-28T22:34:26Z</DateUtc></FrequencyChange></FrequencyChanges></Clock>\n",2.0.10.252,2.0.10.356,2.0.10.356,Professional,1.0.0.6
Proc5,3,List13,1,3,,,,,187,3,125,125,2249,3,0,,62,,,,,,,,,,,,,,,,,,,,,,,,,,,,,,,,,,,,,,,,,DelayDiscountingTitrated,01-28-2024,17:34:27,,3118,1,21,DelayDiscountingTitrated-3118-1,-950758890,1,60.018,"<?xml version=""1.0""?>\n<Clock xmlns:dt=""urn:schemas-microsoft-com:datatypes""><Description dt:dt=""string"">E-Prime Primary Realtime Clock</Description><StartTime><Timestamp dt:dt=""int"">0</Timestamp><DateUtc dt:dt=""string"">2024-01-28T22:34:26Z</DateUtc></StartTime><FrequencyChanges><FrequencyChange><Frequency dt:dt=""r8"">10000000</Frequency><Timestamp dt:dt=""r8"">8112240492101</Timestamp><Current dt:dt=""r8"">0</Current><DateUtc dt:dt=""string"">2024-01-28T22:34:26Z</DateUtc></FrequencyChange></FrequencyChanges></Clock>\n",2.0.10.252,2.0.10.356,2.0.10.356,Professional,1.0.0.6
Proc5,4,List13,1,4,,,,,218,3,187,187,2214,3,0,,31,,,,,,,,,,,,,,,,,,,,,,,,,,,,,,,,,,,,,,,,,DelayDiscountingTitrated,01-28-2024,17:34:27,,3118,1,21,DelayDiscountingTitrated-3118-1,-950758890,1,60.018,"<?xml version=""1.0""?>\n<Clock xmlns:dt=""urn:schemas-microsoft-com:datatypes""><Description dt:dt=""string"">E-Prime Primary Realtime Clock</Description><StartTime><Timestamp dt:dt=""int"">0</Timestamp><DateUtc dt:dt=""string"">2024-01-28T22:34:26Z</DateUtc></StartTime><FrequencyChanges><FrequencyChange><Frequency dt:dt=""r8"">10000000</Frequency><Timestamp dt:dt=""r8"">8112240492101</Timestamp><Current dt:dt=""r8"">0</Current><DateUtc dt:dt=""string"">2024-01-28T22:34:26Z</DateUtc></FrequencyChange></FrequencyChanges></Clock>\n",2.0.10.252,2.0.10.356,2.0.10.356,Professional,1.0.0.6
Proc5,5,List13,1,5,,,,,202,1,218,218,1932,1,0,,16,,,,,,,,,,,,,,,,,,,,,,,,,,,,,,,,,,,,,,,,,DelayDiscountingTitrated,01-28-2024,17:34:27,,3118,1,21,DelayDiscountingTitrated-3118-1,-950758890,1,60.018,"<?xml version=""1.0""?>\n<Clock xmlns:dt=""urn:schemas-microsoft-com:datatypes""><Description dt:dt=""string"">E-Prime Primary Realtime Clock</Description><StartTime><Timestamp dt:dt=""int"">0</Timestamp><DateUtc dt:dt=""string"">2024-01-28T22:34:26Z</DateUtc></StartTime><FrequencyChanges><FrequencyChange><Frequency dt:dt=""r8"">10000000</Frequency><Timestamp dt:dt=""r8"">8112240492101</Timestamp><Current dt:dt=""r8"">0</Current><DateUtc dt:dt=""string"">2024-01-28T22:34:26Z</DateUtc></FrequencyChange></FrequencyChanges></Clock>\n",2.0.10.252,2.0.10.356,2.0.10.356,Professional,1.0.0.6
Proc5,6,List13,1,6,,,,,194,1,202,202,2270,1,0,,8,,,,,,,,,,,,,,,,,,,,,,,,,,,,,,,,,,,,,,,,,DelayDiscountingTitrated,01-28-2024,17:34:27,,3118,1,21,DelayDiscountingTitrated-3118-1,-950758890,1,60.018,"<?xml version=""1.0""?>\n<Clock xmlns:dt=""urn:schemas-microsoft-com:datatypes""><Description dt:dt=""string"">E-Prime Primary Realtime Clock</Description><StartTime><Timestamp dt:dt=""int"">0</Timestamp><DateUtc dt:dt=""string"">2024-01-28T22:34:26Z</DateUtc></StartTime><FrequencyChanges><FrequencyChange><Frequency dt:dt=""r8"">10000000</Frequency><Timestamp dt:dt=""r8"">8112240492101</Timestamp><Current dt:dt=""r8"">0</Current><DateUtc dt:dt=""string"">2024-01-28T22:34:26Z</DateUtc></FrequencyChange></FrequencyChanges></Clock>\n",2.0.10.252,2.0.10.356,2.0.10.356,Professional,1.0.0.6
Proc5,7,List13,1,7,,,,,198,3,194,194,1138,3,0,,4,,,,,,,,,,,,,,,,,,,,,,,,,,,,,,,,,,,,,,,,,DelayDiscountingTitrated,01-28-2024,17:34:27,,3118,1,21,DelayDiscountingTitrated-3118-1,-950758890,1,60.018,"<?xml version=""1.0""?>\n<Clock xmlns:dt=""urn:schemas-microsoft-com:datatypes""><Description dt:dt=""string"">E-Prime Primary Realtime Clock</Description><StartTime><Timestamp dt:dt=""int"">0</Timestamp><DateUtc dt:dt=""string"">2024-01-28T22:34:26Z</DateUtc></StartTime><FrequencyChanges><FrequencyChange><Frequency dt:dt=""r8"">10000000</Frequency><Timestamp dt:dt=""r8"">8112240492101</Timestamp><Current dt:dt=""r8"">0</Current><DateUtc dt:dt=""string"">2024-01-28T22:34:26Z</DateUtc></FrequencyChange></FrequencyChanges></Clock>\n",2.0.10.252,2.0.10.356,2.0.10.356,Professional,1.0.0.6
Proc5,8,List13,1,8,,,,,200,3,198,198,3556,3,0,,2,,,,,,,,,,,,,,,,,,,,,,,,,,,,,,,,,,,,,,,,,DelayDiscountingTitrated,01-28-2024,17:34:27,,3118,1,21,DelayDiscountingTitrated-3118-1,-950758890,1,60.018,"<?xml version=""1.0""?>\n<Clock xmlns:dt=""urn:schemas-microsoft-com:datatypes""><Description dt:dt=""string"">E-Prime Primary Realtime Clock</Description><StartTime><Timestamp dt:dt=""int"">0</Timestamp><DateUtc dt:dt=""string"">2024-01-28T22:34:26Z</DateUtc></StartTime><FrequencyChanges><FrequencyChange><Frequency dt:dt=""r8"">10000000</Frequency><Timestamp dt:dt=""r8"">8112240492101</Timestamp><Current dt:dt=""r8"">0</Current><DateUtc dt:dt=""string"">2024-01-28T22:34:26Z</DateUtc></FrequencyChange></FrequencyChanges></Clock>\n",2.0.10.252,2.0.10.356,2.0.10.356,Professional,1.0.0.6
Proc5,9,List13,1,9,,,,,201,3,200,200,1173,3,0,,1,,,,,,,,,,,,,,,,,,,,,,,,,,,,,,,,,,,,,,,,,DelayDiscountingTitrated,01-28-2024,17:34:27,,3118,1,21,DelayDiscountingTitrated-3118-1,-950758890,1,60.018,"<?xml version=""1.0""?>\n<Clock xmlns:dt=""urn:schemas-microsoft-com:datatypes""><Description dt:dt=""string"">E-Prime Primary Realtime Clock</Description><StartTime><Timestamp dt:dt=""int"">0</Timestamp><DateUtc dt:dt=""string"">2024-01-28T22:34:26Z</DateUtc></StartTime><FrequencyChanges><FrequencyChange><Frequency dt:dt=""r8"">10000000</Frequency><Timestamp dt:dt=""r8"">8112240492101</Timestamp><Current dt:dt=""r8"">0</Current><DateUtc dt:dt=""string"">2024-01-28T22:34:26Z</DateUtc></FrequencyChange></FrequencyChanges></Clock>\n",2.0.10.252,2.0.10.356,2.0.10.356,Professional,1.0.0.6
Proc5,10,List13,1,10,,,,,201,3,200,201,1613,3,0,,,,,,,,,,,,,,,,,,,,,,,,,,,,,,,,,,,,,,,,,,,DelayDiscountingTitrated,01-28-2024,17:34:27,,3118,1,21,DelayDiscountingTitrated-3118-1,-950758890,1,60.018,"<?xml version=""1.0""?>\n<Clock xmlns:dt=""urn:schemas-microsoft-com:datatypes""><Description dt:dt=""string"">E-Prime Primary Realtime Clock</Description><StartTime><Timestamp dt:dt=""int"">0</Timestamp><DateUtc dt:dt=""string"">2024-01-28T22:34:26Z</DateUtc></StartTime><FrequencyChanges><FrequencyChange><Frequency dt:dt=""r8"">10000000</Frequency><Timestamp dt:dt=""r8"">8112240492101</Timestamp><Current dt:dt=""r8"">0</Current><DateUtc dt:dt=""string"">2024-01-28T22:34:26Z</DateUtc></FrequencyChange></FrequencyChanges></Clock>\n",2.0.10.252,2.0.10.356,2.0.10.356,Professional,1.0.0.6
discount5,,List8,,,,,,,,,,,,,,,,500,15 years,5475,2,2,1,,,,,,,,,,,,,,,,,,,,,,,,,,,,,,,,,,,DelayDiscountingTitrated,01-28-2024,17:34:27,,3118,1,21,DelayDiscountingTitrated-3118-1,-950758890,1,60.018,"<?xml version=""1.0""?>\n<Clock xmlns:dt=""urn:schemas-microsoft-com:datatypes""><Description dt:dt=""string"">E-Prime Primary Realtime Clock</Description><StartTime><Timestamp dt:dt=""int"">0</Timestamp><DateUtc dt:dt=""string"">2024-01-28T22:34:26Z</DateUtc></StartTime><FrequencyChanges><FrequencyChange><Frequency dt:dt=""r8"">10000000</Frequency><Timestamp dt:dt=""r8"">8112240492101</Timestamp><Current dt:dt=""r8"">0</Current><DateUtc dt:dt=""string"">2024-01-28T22:34:26Z</DateUtc></FrequencyChange></FrequencyChanges></Clock>\n",2.0.10.252,2.0.10.356,2.0.10.356,Professional,1.0.0.6
fifteenyearproc,,List1,,,,,,,,,,,,,,,,,,,,,,6,1,1,1,,,,,,,,,,,,,,,,,,,,,,,,,,,,,,,DelayDiscountingTitrated,01-28-2024,17:34:27,,3118,1,21,DelayDiscountingTitrated-3118-1,-950758890,1,60.018,"<?xml version=""1.0""?>\n<Clock xmlns:dt=""urn:schemas-microsoft-com:datatypes""><Description dt:dt=""string"">E-Prime Primary Realtime Clock</Description><StartTime><Timestamp dt:dt=""int"">0</Timestamp><DateUtc dt:dt=""string"">2024-01-28T22:34:26Z</DateUtc></StartTime><FrequencyChanges><FrequencyChange><Frequency dt:dt=""r8"">10000000</Frequency><Timestamp dt:dt=""r8"">8112240492101</Timestamp><Current dt:dt=""r8"">0</Current><DateUtc dt:dt=""string"">2024-01-28T22:34:26Z</DateUtc></FrequencyChange></FrequencyChanges></Clock>\n",2.0.10.252,2.0.10.356,2.0.10.356,Professional,1.0.0.6
Init2,,List10,,,2140,3,0,,600,3,200,,,,,,,,,,,,,,,,,1,1,1,,,,,,,,,,,,,,,,,,,,,,,,,,,,DelayDiscountingTitrated,01-28-2024,17:34:27,,3118,1,21,DelayDiscountingTitrated-3118-1,-950758890,1,60.018,"<?xml version=""1.0""?>\n<Clock xmlns:dt=""urn:schemas-microsoft-com:datatypes""><Description dt:dt=""string"">E-Prime Primary Realtime Clock</Description><StartTime><Timestamp dt:dt=""int"">0</Timestamp><DateUtc dt:dt=""string"">2024-01-28T22:34:26Z</DateUtc></StartTime><FrequencyChanges><FrequencyChange><Frequency dt:dt=""r8"">10000000</Frequency><Timestamp dt:dt=""r8"">8112240492101</Timestamp><Current dt:dt=""r8"">0</Current><DateUtc dt:dt=""string"">2024-01-28T22:34:26Z</DateUtc></FrequencyChange></FrequencyChanges></Clock>\n",2.0.10.252,2.0.10.356,2.0.10.356,Professional,1.0.0.6
Proc2,,List10,,,,,,,400,1,600,600,3558,1,0,,200,,,,,,,,,,,2,1,2,,,,,,,,,,,,,,,,,,,,,,,,,,,,DelayDiscountingTitrated,01-28-2024,17:34:27,,3118,1,21,DelayDiscountingTitrated-3118-1,-950758890,1,60.018,"<?xml version=""1.0""?>\n<Clock xmlns:dt=""urn:schemas-microsoft-com:datatypes""><Description dt:dt=""string"">E-Prime Primary Realtime Clock</Description><StartTime><Timestamp dt:dt=""int"">0</Timestamp><DateUtc dt:dt=""string"">2024-01-28T22:34:26Z</DateUtc></StartTime><FrequencyChanges><FrequencyChange><Frequency dt:dt=""r8"">10000000</Frequency><Timestamp dt:dt=""r8"">8112240492101</Timestamp><Current dt:dt=""r8"">0</Current><DateUtc dt:dt=""string"">2024-01-28T22:34:26Z</DateUtc></FrequencyChange></FrequencyChanges></Clock>\n",2.0.10.252,2.0.10.356,2.0.10.356,Professional,1.0.0.6
Proc2,,List10,,,,,,,500,3,400,400,1727,3,0,,100,,,,,,,,,,,3,1,3,,,,,,,,,,,,,,,,,,,,,,,,,,,,DelayDiscountingTitrated,01-28-2024,17:34:27,,3118,1,21,DelayDiscountingTitrated-3118-1,-950758890,1,60.018,"<?xml version=""1.0""?>\n<Clock xmlns:dt=""urn:schemas-microsoft-com:datatypes""><Description dt:dt=""string"">E-Prime Primary Realtime Clock</Description><StartTime><Timestamp dt:dt=""int"">0</Timestamp><DateUtc dt:dt=""string"">2024-01-28T22:34:26Z</DateUtc></StartTime><FrequencyChanges><FrequencyChange><Frequency dt:dt=""r8"">10000000</Frequency><Timestamp dt:dt=""r8"">8112240492101</Timestamp><Current dt:dt=""r8"">0</Current><DateUtc dt:dt=""string"">2024-01-28T22:34:26Z</DateUtc></FrequencyChange></FrequencyChanges></Clock>\n",2.0.10.252,2.0.10.356,2.0.10.356,Professional,1.0.0.6
Proc2,,List10,,,,,,,450,1,500,500,1337,1,0,,50,,,,,,,,,,,4,1,4,,,,,,,,,,,,,,,,,,,,,,,,,,,,DelayDiscountingTitrated,01-28-2024,17:34:27,,3118,1,21,DelayDiscountingTitrated-3118-1,-950758890,1,60.018,"<?xml version=""1.0""?>\n<Clock xmlns:dt=""urn:schemas-microsoft-com:datatypes""><Description dt:dt=""string"">E-Prime Primary Realtime Clock</Description><StartTime><Timestamp dt:dt=""int"">0</Timestamp><DateUtc dt:dt=""string"">2024-01-28T22:34:26Z</DateUtc></StartTime><FrequencyChanges><FrequencyChange><Frequency dt:dt=""r8"">10000000</Frequency><Timestamp dt:dt=""r8"">8112240492101</Timestamp><Current dt:dt=""r8"">0</Current><DateUtc dt:dt=""string"">2024-01-28T22:34:26Z</DateUtc></FrequencyChange></FrequencyChanges></Clock>\n",2.0.10.252,2.0.10.356,2.0.10.356,Professional,1.0.0.6
Proc2,,List10,,,,,,,475,3,450,450,1434,3,0,,25,,,,,,,,,,,5,1,5,,,,,,,,,,,,,,,,,,,,,,,,,,,,DelayDiscountingTitrated,01-28-2024,17:34:27,,3118,1,21,DelayDiscountingTitrated-3118-1,-950758890,1,60.018,"<?xml version=""1.0""?>\n<Clock xmlns:dt=""urn:schemas-microsoft-com:datatypes""><Description dt:dt=""string"">E-Prime Primary Realtime Clock</Description><StartTime><Timestamp dt:dt=""int"">0</Timestamp><DateUtc dt:dt=""string"">2024-01-28T22:34:26Z</DateUtc></StartTime><FrequencyChanges><FrequencyChange><Frequency dt:dt=""r8"">10000000</Frequency><Timestamp dt:dt=""r8"">8112240492101</Timestamp><Current dt:dt=""r8"">0</Current><DateUtc dt:dt=""string"">2024-01-28T22:34:26Z</DateUtc></FrequencyChange></FrequencyChanges></Clock>\n",2.0.10.252,2.0.10.356,2.0.10.356,Professional,1.0.0.6
Proc2,,List10,,,,,,,463,1,475,475,1960,1,0,,12,,,,,,,,,,,6,1,6,,,,,,,,,,,,,,,,,,,,,,,,,,,,DelayDiscountingTitrated,01-28-2024,17:34:27,,3118,1,21,DelayDiscountingTitrated-3118-1,-950758890,1,60.018,"<?xml version=""1.0""?>\n<Clock xmlns:dt=""urn:schemas-microsoft-com:datatypes""><Description dt:dt=""string"">E-Prime Primary Realtime Clock</Description><StartTime><Timestamp dt:dt=""int"">0</Timestamp><DateUtc dt:dt=""string"">2024-01-28T22:34:26Z</DateUtc></StartTime><FrequencyChanges><FrequencyChange><Frequency dt:dt=""r8"">10000000</Frequency><Timestamp dt:dt=""r8"">8112240492101</Timestamp><Current dt:dt=""r8"">0</Current><DateUtc dt:dt=""string"">2024-01-28T22:34:26Z</DateUtc></FrequencyChange></FrequencyChanges></Clock>\n",2.0.10.252,2.0.10.356,2.0.10.356,Professional,1.0.0.6
Proc2,,List10,,,,,,,469,3,463,463,1000,3,0,,6,,,,,,,,,,,7,1,7,,,,,,,,,,,,,,,,,,,,,,,,,,,,DelayDiscountingTitrated,01-28-2024,17:34:27,,3118,1,21,DelayDiscountingTitrated-3118-1,-950758890,1,60.018,"<?xml version=""1.0""?>\n<Clock xmlns:dt=""urn:schemas-microsoft-com:datatypes""><Description dt:dt=""string"">E-Prime Primary Realtime Clock</Description><StartTime><Timestamp dt:dt=""int"">0</Timestamp><DateUtc dt:dt=""string"">2024-01-28T22:34:26Z</DateUtc></StartTime><FrequencyChanges><FrequencyChange><Frequency dt:dt=""r8"">10000000</Frequency><Timestamp dt:dt=""r8"">8112240492101</Timestamp><Current dt:dt=""r8"">0</Current><DateUtc dt:dt=""string"">2024-01-28T22:34:26Z</DateUtc></FrequencyChange></FrequencyChanges></Clock>\n",2.0.10.252,2.0.10.356,2.0.10.356,Professional,1.0.0.6
Proc2,,List10,,,,,,,472,3,469,469,822,3,0,,3,,,,,,,,,,,8,1,8,,,,,,,,,,,,,,,,,,,,,,,,,,,,DelayDiscountingTitrated,01-28-2024,17:34:27,,3118,1,21,DelayDiscountingTitrated-3118-1,-950758890,1,60.018,"<?xml version=""1.0""?>\n<Clock xmlns:dt=""urn:schemas-microsoft-com:datatypes""><Description dt:dt=""string"">E-Prime Primary Realtime Clock</Description><StartTime><Timestamp dt:dt=""int"">0</Timestamp><DateUtc dt:dt=""string"">2024-01-28T22:34:26Z</DateUtc></StartTime><FrequencyChanges><FrequencyChange><Frequency dt:dt=""r8"">10000000</Frequency><Timestamp dt:dt=""r8"">8112240492101</Timestamp><Current dt:dt=""r8"">0</Current><DateUtc dt:dt=""string"">2024-01-28T22:34:26Z</DateUtc></FrequencyChange></FrequencyChanges></Clock>\n",2.0.10.252,2.0.10.356,2.0.10.356,Professional,1.0.0.6
Proc2,,List10,,,,,,,474,3,472,472,1076,3,0,,2,,,,,,,,,,,9,1,9,,,,,,,,,,,,,,,,,,,,,,,,,,,,DelayDiscountingTitrated,01-28-2024,17:34:27,,3118,1,21,DelayDiscountingTitrated-3118-1,-950758890,1,60.018,"<?xml version=""1.0""?>\n<Clock xmlns:dt=""urn:schemas-microsoft-com:datatypes""><Description dt:dt=""string"">E-Prime Primary Realtime Clock</Description><StartTime><Timestamp dt:dt=""int"">0</Timestamp><DateUtc dt:dt=""string"">2024-01-28T22:34:26Z</DateUtc></StartTime><FrequencyChanges><FrequencyChange><Frequency dt:dt=""r8"">10000000</Frequency><Timestamp dt:dt=""r8"">8112240492101</Timestamp><Current dt:dt=""r8"">0</Current><DateUtc dt:dt=""string"">2024-01-28T22:34:26Z</DateUtc></FrequencyChange></FrequencyChanges></Clock>\n",2.0.10.252,2.0.10.356,2.0.10.356,Professional,1.0.0.6
Proc2,,List10,,,,,,,475,3,474,474,744,3,0,,1,,,,,,,,,,,10,1,10,,,,,,,,,,,,,,,,,,,,,,,,,,,,DelayDiscountingTitrated,01-28-2024,17:34:27,,3118,1,21,DelayDiscountingTitrated-3118-1,-950758890,1,60.018,"<?xml version=""1.0""?>\n<Clock xmlns:dt=""urn:schemas-microsoft-com:datatypes""><Description dt:dt=""string"">E-Prime Primary Realtime Clock</Description><StartTime><Timestamp dt:dt=""int"">0</Timestamp><DateUtc dt:dt=""string"">2024-01-28T22:34:26Z</DateUtc></StartTime><FrequencyChanges><FrequencyChange><Frequency dt:dt=""r8"">10000000</Frequency><Timestamp dt:dt=""r8"">8112240492101</Timestamp><Current dt:dt=""r8"">0</Current><DateUtc dt:dt=""string"">2024-01-28T22:34:26Z</DateUtc></FrequencyChange></FrequencyChanges></Clock>\n",2.0.10.252,2.0.10.356,2.0.10.356,Professional,1.0.0.6
Proc2,,List10,,,,,,,475,3,474,475,689,3,0,,,,,,,,,,,,,11,1,11,,,,,,,,,,,,,,,,,,,,,,,,,,,,DelayDiscountingTitrated,01-28-2024,17:34:27,,3118,1,21,DelayDiscountingTitrated-3118-1,-950758890,1,60.018,"<?xml version=""1.0""?>\n<Clock xmlns:dt=""urn:schemas-microsoft-com:datatypes""><Description dt:dt=""string"">E-Prime Primary Realtime Clock</Description><StartTime><Timestamp dt:dt=""int"">0</Timestamp><DateUtc dt:dt=""string"">2024-01-28T22:34:26Z</DateUtc></StartTime><FrequencyChanges><FrequencyChange><Frequency dt:dt=""r8"">10000000</Frequency><Timestamp dt:dt=""r8"">8112240492101</Timestamp><Current dt:dt=""r8"">0</Current><DateUtc dt:dt=""string"">2024-01-28T22:34:26Z</DateUtc></FrequencyChange></FrequencyChanges></Clock>\n",2.0.10.252,2.0.10.356,2.0.10.356,Professional,1.0.0.6
discount2,,List5,,,,,,,,,,,,,,,,200,6 month,180,,,,,,,,,,,1,1,1,,,,,,,,,,,,,,,,,,,,,,,,,DelayDiscountingTitrated,01-28-2024,17:34:27,,3118,1,21,DelayDiscountingTitrated-3118-1,-950758890,1,60.018,"<?xml version=""1.0""?>\n<Clock xmlns:dt=""urn:schemas-microsoft-com:datatypes""><Description dt:dt=""string"">E-Prime Primary Realtime Clock</Description><StartTime><Timestamp dt:dt=""int"">0</Timestamp><DateUtc dt:dt=""string"">2024-01-28T22:34:26Z</DateUtc></StartTime><FrequencyChanges><FrequencyChange><Frequency dt:dt=""r8"">10000000</Frequency><Timestamp dt:dt=""r8"">8112240492101</Timestamp><Current dt:dt=""r8"">0</Current><DateUtc dt:dt=""string"">2024-01-28T22:34:26Z</DateUtc></FrequencyChange></FrequencyChanges></Clock>\n",2.0.10.252,2.0.10.356,2.0.10.356,Professional,1.0.0.6
sixmthproc,,List1,,,,,,,,,,,,,,,,,,,,,,3,1,2,2,,,,,,,,,,,,,,,,,,,,,,,,,,,,,,,DelayDiscountingTitrated,01-28-2024,17:34:27,,3118,1,21,DelayDiscountingTitrated-3118-1,-950758890,1,60.018,"<?xml version=""1.0""?>\n<Clock xmlns:dt=""urn:schemas-microsoft-com:datatypes""><Description dt:dt=""string"">E-Prime Primary Realtime Clock</Description><StartTime><Timestamp dt:dt=""int"">0</Timestamp><DateUtc dt:dt=""string"">2024-01-28T22:34:26Z</DateUtc></StartTime><FrequencyChanges><FrequencyChange><Frequency dt:dt=""r8"">10000000</Frequency><Timestamp dt:dt=""r8"">8112240492101</Timestamp><Current dt:dt=""r8"">0</Current><DateUtc dt:dt=""string"">2024-01-28T22:34:26Z</DateUtc></FrequencyChange></FrequencyChanges></Clock>\n",2.0.10.252,2.0.10.356,2.0.10.356,Professional,1.0.0.6
TrialProcInit,,List2,,,2168,3,0,,750,3,500,,,,,,,,,,,,,,,,,,,,,,,1,1,1,,,,,,,,,,,,,,,,,,,,,,DelayDiscountingTitrated,01-28-2024,17:34:27,,3118,1,21,DelayDiscountingTitrated-3118-1,-950758890,1,60.018,"<?xml version=""1.0""?>\n<Clock xmlns:dt=""urn:schemas-microsoft-com:datatypes""><Description dt:dt=""string"">E-Prime Primary Realtime Clock</Description><StartTime><Timestamp dt:dt=""int"">0</Timestamp><DateUtc dt:dt=""string"">2024-01-28T22:34:26Z</DateUtc></StartTime><FrequencyChanges><FrequencyChange><Frequency dt:dt=""r8"">10000000</Frequency><Timestamp dt:dt=""r8"">8112240492101</Timestamp><Current dt:dt=""r8"">0</Current><DateUtc dt:dt=""string"">2024-01-28T22:34:26Z</DateUtc></FrequencyChange></FrequencyChanges></Clock>\n",2.0.10.252,2.0.10.356,2.0.10.356,Professional,1.0.0.6
TrialProc,,List2,,,,,,,625,1,750,750,1968,1,0,,125,,,,,,,,,,,,,,,,,2,1,2,,,,,,,,,,,,,,,,,,,,,,DelayDiscountingTitrated,01-28-2024,17:34:27,,3118,1,21,DelayDiscountingTitrated-3118-1,-950758890,1,60.018,"<?xml version=""1.0""?>\n<Clock xmlns:dt=""urn:schemas-microsoft-com:datatypes""><Description dt:dt=""string"">E-Prime Primary Realtime Clock</Description><StartTime><Timestamp dt:dt=""int"">0</Timestamp><DateUtc dt:dt=""string"">2024-01-28T22:34:26Z</DateUtc></StartTime><FrequencyChanges><FrequencyChange><Frequency dt:dt=""r8"">10000000</Frequency><Timestamp dt:dt=""r8"">8112240492101</Timestamp><Current dt:dt=""r8"">0</Current><DateUtc dt:dt=""string"">2024-01-28T22:34:26Z</DateUtc></FrequencyChange></FrequencyChanges></Clock>\n",2.0.10.252,2.0.10.356,2.0.10.356,Professional,1.0.0.6
TrialProc,,List2,,,,,,,687,3,625,625,1873,3,0,,62,,,,,,,,,,,,,,,,,3,1,3,,,,,,,,,,,,,,,,,,,,,,DelayDiscountingTitrated,01-28-2024,17:34:27,,3118,1,21,DelayDiscountingTitrated-3118-1,-950758890,1,60.018,"<?xml version=""1.0""?>\n<Clock xmlns:dt=""urn:schemas-microsoft-com:datatypes""><Description dt:dt=""string"">E-Prime Primary Realtime Clock</Description><StartTime><Timestamp dt:dt=""int"">0</Timestamp><DateUtc dt:dt=""string"">2024-01-28T22:34:26Z</DateUtc></StartTime><FrequencyChanges><FrequencyChange><Frequency dt:dt=""r8"">10000000</Frequency><Timestamp dt:dt=""r8"">8112240492101</Timestamp><Current dt:dt=""r8"">0</Current><DateUtc dt:dt=""string"">2024-01-28T22:34:26Z</DateUtc></FrequencyChange></FrequencyChanges></Clock>\n",2.0.10.252,2.0.10.356,2.0.10.356,Professional,1.0.0.6
TrialProc,,List2,,,,,,,718,3,687,687,1349,3,0,,31,,,,,,,,,,,,,,,,,4,1,4,,,,,,,,,,,,,,,,,,,,,,DelayDiscountingTitrated,01-28-2024,17:34:27,,3118,1,21,DelayDiscountingTitrated-3118-1,-950758890,1,60.018,"<?xml version=""1.0""?>\n<Clock xmlns:dt=""urn:schemas-microsoft-com:datatypes""><Description dt:dt=""string"">E-Prime Primary Realtime Clock</Description><StartTime><Timestamp dt:dt=""int"">0</Timestamp><DateUtc dt:dt=""string"">2024-01-28T22:34:26Z</DateUtc></StartTime><FrequencyChanges><FrequencyChange><Frequency dt:dt=""r8"">10000000</Frequency><Timestamp dt:dt=""r8"">8112240492101</Timestamp><Current dt:dt=""r8"">0</Current><DateUtc dt:dt=""string"">2024-01-28T22:34:26Z</DateUtc></FrequencyChange></FrequencyChanges></Clock>\n",2.0.10.252,2.0.10.356,2.0.10.356,Professional,1.0.0.6
TrialProc,,List2,,,,,,,702,1,718,718,2166,1,0,,16,,,,,,,,,,,,,,,,,5,1,5,,,,,,,,,,,,,,,,,,,,,,DelayDiscountingTitrated,01-28-2024,17:34:27,,3118,1,21,DelayDiscountingTitrated-3118-1,-950758890,1,60.018,"<?xml version=""1.0""?>\n<Clock xmlns:dt=""urn:schemas-microsoft-com:datatypes""><Description dt:dt=""string"">E-Prime Primary Realtime Clock</Description><StartTime><Timestamp dt:dt=""int"">0</Timestamp><DateUtc dt:dt=""string"">2024-01-28T22:34:26Z</DateUtc></StartTime><FrequencyChanges><FrequencyChange><Frequency dt:dt=""r8"">10000000</Frequency><Timestamp dt:dt=""r8"">8112240492101</Timestamp><Current dt:dt=""r8"">0</Current><DateUtc dt:dt=""string"">2024-01-28T22:34:26Z</DateUtc></FrequencyChange></FrequencyChanges></Clock>\n",2.0.10.252,2.0.10.356,2.0.10.356,Professional,1.0.0.6
TrialProc,,List2,,,,,,,694,1,702,702,1598,1,0,,8,,,,,,,,,,,,,,,,,6,1,6,,,,,,,,,,,,,,,,,,,,,,DelayDiscountingTitrated,01-28-2024,17:34:27,,3118,1,21,DelayDiscountingTitrated-3118-1,-950758890,1,60.018,"<?xml version=""1.0""?>\n<Clock xmlns:dt=""urn:schemas-microsoft-com:datatypes""><Description dt:dt=""string"">E-Prime Primary Realtime Clock</Description><StartTime><Timestamp dt:dt=""int"">0</Timestamp><DateUtc dt:dt=""string"">2024-01-28T22:34:26Z</DateUtc></StartTime><FrequencyChanges><FrequencyChange><Frequency dt:dt=""r8"">10000000</Frequency><Timestamp dt:dt=""r8"">8112240492101</Timestamp><Current dt:dt=""r8"">0</Current><DateUtc dt:dt=""string"">2024-01-28T22:34:26Z</DateUtc></FrequencyChange></FrequencyChanges></Clock>\n",2.0.10.252,2.0.10.356,2.0.10.356,Professional,1.0.0.6
TrialProc,,List2,,,,,,,698,3,694,694,517,3,0,,4,,,,,,,,,,,,,,,,,7,1,7,,,,,,,,,,,,,,,,,,,,,,DelayDiscountingTitrated,01-28-2024,17:34:27,,3118,1,21,DelayDiscountingTitrated-3118-1,-950758890,1,60.018,"<?xml version=""1.0""?>\n<Clock xmlns:dt=""urn:schemas-microsoft-com:datatypes""><Description dt:dt=""string"">E-Prime Primary Realtime Clock</Description><StartTime><Timestamp dt:dt=""int"">0</Timestamp><DateUtc dt:dt=""string"">2024-01-28T22:34:26Z</DateUtc></StartTime><FrequencyChanges><FrequencyChange><Frequency dt:dt=""r8"">10000000</Frequency><Timestamp dt:dt=""r8"">8112240492101</Timestamp><Current dt:dt=""r8"">0</Current><DateUtc dt:dt=""string"">2024-01-28T22:34:26Z</DateUtc></FrequencyChange></FrequencyChanges></Clock>\n",2.0.10.252,2.0.10.356,2.0.10.356,Professional,1.0.0.6
TrialProc,,List2,,,,,,,700,3,698,698,919,3,0,,2,,,,,,,,,,,,,,,,,8,1,8,,,,,,,,,,,,,,,,,,,,,,DelayDiscountingTitrated,01-28-2024,17:34:27,,3118,1,21,DelayDiscountingTitrated-3118-1,-950758890,1,60.018,"<?xml version=""1.0""?>\n<Clock xmlns:dt=""urn:schemas-microsoft-com:datatypes""><Description dt:dt=""string"">E-Prime Primary Realtime Clock</Description><StartTime><Timestamp dt:dt=""int"">0</Timestamp><DateUtc dt:dt=""string"">2024-01-28T22:34:26Z</DateUtc></StartTime><FrequencyChanges><FrequencyChange><Frequency dt:dt=""r8"">10000000</Frequency><Timestamp dt:dt=""r8"">8112240492101</Timestamp><Current dt:dt=""r8"">0</Current><DateUtc dt:dt=""string"">2024-01-28T22:34:26Z</DateUtc></FrequencyChange></FrequencyChanges></Clock>\n",2.0.10.252,2.0.10.356,2.0.10.356,Professional,1.0.0.6
TrialProc,,List2,,,,,,,701,3,700,700,1177,3,0,,1,,,,,,,,,,,,,,,,,9,1,9,,,,,,,,,,,,,,,,,,,,,,DelayDiscountingTitrated,01-28-2024,17:34:27,,3118,1,21,DelayDiscountingTitrated-3118-1,-950758890,1,60.018,"<?xml version=""1.0""?>\n<Clock xmlns:dt=""urn:schemas-microsoft-com:datatypes""><Description dt:dt=""string"">E-Prime Primary Realtime Clock</Description><StartTime><Timestamp dt:dt=""int"">0</Timestamp><DateUtc dt:dt=""string"">2024-01-28T22:34:26Z</DateUtc></StartTime><FrequencyChanges><FrequencyChange><Frequency dt:dt=""r8"">10000000</Frequency><Timestamp dt:dt=""r8"">8112240492101</Timestamp><Current dt:dt=""r8"">0</Current><DateUtc dt:dt=""string"">2024-01-28T22:34:26Z</DateUtc></FrequencyChange></FrequencyChanges></Clock>\n",2.0.10.252,2.0.10.356,2.0.10.356,Professional,1.0.0.6
TrialProc,,List2,,,,,,,701,3,700,701,832,3,0,,,,,,,,,,,,,,,,,,,10,1,10,,,,,,,,,,,,,,,,,,,,,,DelayDiscountingTitrated,01-28-2024,17:34:27,,3118,1,21,DelayDiscountingTitrated-3118-1,-950758890,1,60.018,"<?xml version=""1.0""?>\n<Clock xmlns:dt=""urn:schemas-microsoft-com:datatypes""><Description dt:dt=""string"">E-Prime Primary Realtime Clock</Description><StartTime><Timestamp dt:dt=""int"">0</Timestamp><DateUtc dt:dt=""string"">2024-01-28T22:34:26Z</DateUtc></StartTime><FrequencyChanges><FrequencyChange><Frequency dt:dt=""r8"">10000000</Frequency><Timestamp dt:dt=""r8"">8112240492101</Timestamp><Current dt:dt=""r8"">0</Current><DateUtc dt:dt=""string"">2024-01-28T22:34:26Z</DateUtc></FrequencyChange></FrequencyChanges></Clock>\n",2.0.10.252,2.0.10.356,2.0.10.356,Professional,1.0.0.6
discount,,List3,,,,,,,,,,,,,,,,500,1 week,7,,,,,,,,,,,,,,,,,2,1,1,,,,,,,,,,,,,,,,,,,DelayDiscountingTitrated,01-28-2024,17:34:27,,3118,1,21,DelayDiscountingTitrated-3118-1,-950758890,1,60.018,"<?xml version=""1.0""?>\n<Clock xmlns:dt=""urn:schemas-microsoft-com:datatypes""><Description dt:dt=""string"">E-Prime Primary Realtime Clock</Description><StartTime><Timestamp dt:dt=""int"">0</Timestamp><DateUtc dt:dt=""string"">2024-01-28T22:34:26Z</DateUtc></StartTime><FrequencyChanges><FrequencyChange><Frequency dt:dt=""r8"">10000000</Frequency><Timestamp dt:dt=""r8"">8112240492101</Timestamp><Current dt:dt=""r8"">0</Current><DateUtc dt:dt=""string"">2024-01-28T22:34:26Z</DateUtc></FrequencyChange></FrequencyChanges></Clock>\n",2.0.10.252,2.0.10.356,2.0.10.356,Professional,1.0.0.6
onewkproc,,List1,,,,,,,,,,,,,,,,,,,,,,1,1,3,3,,,,,,,,,,,,,,,,,,,,,,,,,,,,,,,DelayDiscountingTitrated,01-28-2024,17:34:27,,3118,1,21,DelayDiscountingTitrated-3118-1,-950758890,1,60.018,"<?xml version=""1.0""?>\n<Clock xmlns:dt=""urn:schemas-microsoft-com:datatypes""><Description dt:dt=""string"">E-Prime Primary Realtime Clock</Description><StartTime><Timestamp dt:dt=""int"">0</Timestamp><DateUtc dt:dt=""string"">2024-01-28T22:34:26Z</DateUtc></StartTime><FrequencyChanges><FrequencyChange><Frequency dt:dt=""r8"">10000000</Frequency><Timestamp dt:dt=""r8"">8112240492101</Timestamp><Current dt:dt=""r8"">0</Current><DateUtc dt:dt=""string"">2024-01-28T22:34:26Z</DateUtc></FrequencyChange></FrequencyChanges></Clock>\n",2.0.10.252,2.0.10.356,2.0.10.356,Professional,1.0.0.6
Init3,,List11,,,3310,3,0,,750,3,500,,,,,,,,,,,,,,,,,,,,,,,,,,,,,1,1,1,,,,,,,,,,,,,,,,DelayDiscountingTitrated,01-28-2024,17:34:27,,3118,1,21,DelayDiscountingTitrated-3118-1,-950758890,1,60.018,"<?xml version=""1.0""?>\n<Clock xmlns:dt=""urn:schemas-microsoft-com:datatypes""><Description dt:dt=""string"">E-Prime Primary Realtime Clock</Description><StartTime><Timestamp dt:dt=""int"">0</Timestamp><DateUtc dt:dt=""string"">2024-01-28T22:34:26Z</DateUtc></StartTime><FrequencyChanges><FrequencyChange><Frequency dt:dt=""r8"">10000000</Frequency><Timestamp dt:dt=""r8"">8112240492101</Timestamp><Current dt:dt=""r8"">0</Current><DateUtc dt:dt=""string"">2024-01-28T22:34:26Z</DateUtc></FrequencyChange></FrequencyChanges></Clock>\n",2.0.10.252,2.0.10.356,2.0.10.356,Professional,1.0.0.6
Proc3,,List11,,,,,,,875,3,750,750,904,3,0,,125,,,,,,,,,,,,,,,,,,,,,,,2,1,2,,,,,,,,,,,,,,,,DelayDiscountingTitrated,01-28-2024,17:34:27,,3118,1,21,DelayDiscountingTitrated-3118-1,-950758890,1,60.018,"<?xml version=""1.0""?>\n<Clock xmlns:dt=""urn:schemas-microsoft-com:datatypes""><Description dt:dt=""string"">E-Prime Primary Realtime Clock</Description><StartTime><Timestamp dt:dt=""int"">0</Timestamp><DateUtc dt:dt=""string"">2024-01-28T22:34:26Z</DateUtc></StartTime><FrequencyChanges><FrequencyChange><Frequency dt:dt=""r8"">10000000</Frequency><Timestamp dt:dt=""r8"">8112240492101</Timestamp><Current dt:dt=""r8"">0</Current><DateUtc dt:dt=""string"">2024-01-28T22:34:26Z</DateUtc></FrequencyChange></FrequencyChanges></Clock>\n",2.0.10.252,2.0.10.356,2.0.10.356,Professional,1.0.0.6
Proc3,,List11,,,,,,,937,3,875,875,1091,3,0,,62,,,,,,,,,,,,,,,,,,,,,,,3,1,3,,,,,,,,,,,,,,,,DelayDiscountingTitrated,01-28-2024,17:34:27,,3118,1,21,DelayDiscountingTitrated-3118-1,-950758890,1,60.018,"<?xml version=""1.0""?>\n<Clock xmlns:dt=""urn:schemas-microsoft-com:datatypes""><Description dt:dt=""string"">E-Prime Primary Realtime Clock</Description><StartTime><Timestamp dt:dt=""int"">0</Timestamp><DateUtc dt:dt=""string"">2024-01-28T22:34:26Z</DateUtc></StartTime><FrequencyChanges><FrequencyChange><Frequency dt:dt=""r8"">10000000</Frequency><Timestamp dt:dt=""r8"">8112240492101</Timestamp><Current dt:dt=""r8"">0</Current><DateUtc dt:dt=""string"">2024-01-28T22:34:26Z</DateUtc></FrequencyChange></FrequencyChanges></Clock>\n",2.0.10.252,2.0.10.356,2.0.10.356,Professional,1.0.0.6
Proc3,,List11,,,,,,,969,3,937,937,878,3,0,,32,,,,,,,,,,,,,,,,,,,,,,,4,1,4,,,,,,,,,,,,,,,,DelayDiscountingTitrated,01-28-2024,17:34:27,,3118,1,21,DelayDiscountingTitrated-3118-1,-950758890,1,60.018,"<?xml version=""1.0""?>\n<Clock xmlns:dt=""urn:schemas-microsoft-com:datatypes""><Description dt:dt=""string"">E-Prime Primary Realtime Clock</Description><StartTime><Timestamp dt:dt=""int"">0</Timestamp><DateUtc dt:dt=""string"">2024-01-28T22:34:26Z</DateUtc></StartTime><FrequencyChanges><FrequencyChange><Frequency dt:dt=""r8"">10000000</Frequency><Timestamp dt:dt=""r8"">8112240492101</Timestamp><Current dt:dt=""r8"">0</Current><DateUtc dt:dt=""string"">2024-01-28T22:34:26Z</DateUtc></FrequencyChange></FrequencyChanges></Clock>\n",2.0.10.252,2.0.10.356,2.0.10.356,Professional,1.0.0.6
Proc3,,List11,,,,,,,985,3,969,969,993,3,0,,16,,,,,,,,,,,,,,,,,,,,,,,5,1,5,,,,,,,,,,,,,,,,DelayDiscountingTitrated,01-28-2024,17:34:27,,3118,1,21,DelayDiscountingTitrated-3118-1,-950758890,1,60.018,"<?xml version=""1.0""?>\n<Clock xmlns:dt=""urn:schemas-microsoft-com:datatypes""><Description dt:dt=""string"">E-Prime Primary Realtime Clock</Description><StartTime><Timestamp dt:dt=""int"">0</Timestamp><DateUtc dt:dt=""string"">2024-01-28T22:34:26Z</DateUtc></StartTime><FrequencyChanges><FrequencyChange><Frequency dt:dt=""r8"">10000000</Frequency><Timestamp dt:dt=""r8"">8112240492101</Timestamp><Current dt:dt=""r8"">0</Current><DateUtc dt:dt=""string"">2024-01-28T22:34:26Z</DateUtc></FrequencyChange></FrequencyChanges></Clock>\n",2.0.10.252,2.0.10.356,2.0.10.356,Professional,1.0.0.6
Proc3,,List11,,,,,,,993,3,985,985,1120,3,0,,8,,,,,,,,,,,,,,,,,,,,,,,6,1,6,,,,,,,,,,,,,,,,DelayDiscountingTitrated,01-28-2024,17:34:27,,3118,1,21,DelayDiscountingTitrated-3118-1,-950758890,1,60.018,"<?xml version=""1.0""?>\n<Clock xmlns:dt=""urn:schemas-microsoft-com:datatypes""><Description dt:dt=""string"">E-Prime Primary Realtime Clock</Description><StartTime><Timestamp dt:dt=""int"">0</Timestamp><DateUtc dt:dt=""string"">2024-01-28T22:34:26Z</DateUtc></StartTime><FrequencyChanges><FrequencyChange><Frequency dt:dt=""r8"">10000000</Frequency><Timestamp dt:dt=""r8"">8112240492101</Timestamp><Current dt:dt=""r8"">0</Current><DateUtc dt:dt=""string"">2024-01-28T22:34:26Z</DateUtc></FrequencyChange></FrequencyChanges></Clock>\n",2.0.10.252,2.0.10.356,2.0.10.356,Professional,1.0.0.6
Proc3,,List11,,,,,,,989,1,993,993,570,1,0,,4,,,,,,,,,,,,,,,,,,,,,,,7,1,7,,,,,,,,,,,,,,,,DelayDiscountingTitrated,01-28-2024,17:34:27,,3118,1,21,DelayDiscountingTitrated-3118-1,-950758890,1,60.018,"<?xml version=""1.0""?>\n<Clock xmlns:dt=""urn:schemas-microsoft-com:datatypes""><Description dt:dt=""string"">E-Prime Primary Realtime Clock</Description><StartTime><Timestamp dt:dt=""int"">0</Timestamp><DateUtc dt:dt=""string"">2024-01-28T22:34:26Z</DateUtc></StartTime><FrequencyChanges><FrequencyChange><Frequency dt:dt=""r8"">10000000</Frequency><Timestamp dt:dt=""r8"">8112240492101</Timestamp><Current dt:dt=""r8"">0</Current><DateUtc dt:dt=""string"">2024-01-28T22:34:26Z</DateUtc></FrequencyChange></FrequencyChanges></Clock>\n",2.0.10.252,2.0.10.356,2.0.10.356,Professional,1.0.0.6
Proc3,,List11,,,,,,,987,1,989,989,658,1,0,,2,,,,,,,,,,,,,,,,,,,,,,,8,1,8,,,,,,,,,,,,,,,,DelayDiscountingTitrated,01-28-2024,17:34:27,,3118,1,21,DelayDiscountingTitrated-3118-1,-950758890,1,60.018,"<?xml version=""1.0""?>\n<Clock xmlns:dt=""urn:schemas-microsoft-com:datatypes""><Description dt:dt=""string"">E-Prime Primary Realtime Clock</Description><StartTime><Timestamp dt:dt=""int"">0</Timestamp><DateUtc dt:dt=""string"">2024-01-28T22:34:26Z</DateUtc></StartTime><FrequencyChanges><FrequencyChange><Frequency dt:dt=""r8"">10000000</Frequency><Timestamp dt:dt=""r8"">8112240492101</Timestamp><Current dt:dt=""r8"">0</Current><DateUtc dt:dt=""string"">2024-01-28T22:34:26Z</DateUtc></FrequencyChange></FrequencyChanges></Clock>\n",2.0.10.252,2.0.10.356,2.0.10.356,Professional,1.0.0.6
Proc3,,List11,,,,,,,988,3,987,987,455,3,0,,1,,,,,,,,,,,,,,,,,,,,,,,9,1,9,,,,,,,,,,,,,,,,DelayDiscountingTitrated,01-28-2024,17:34:27,,3118,1,21,DelayDiscountingTitrated-3118-1,-950758890,1,60.018,"<?xml version=""1.0""?>\n<Clock xmlns:dt=""urn:schemas-microsoft-com:datatypes""><Description dt:dt=""string"">E-Prime Primary Realtime Clock</Description><StartTime><Timestamp dt:dt=""int"">0</Timestamp><DateUtc dt:dt=""string"">2024-01-28T22:34:26Z</DateUtc></StartTime><FrequencyChanges><FrequencyChange><Frequency dt:dt=""r8"">10000000</Frequency><Timestamp dt:dt=""r8"">8112240492101</Timestamp><Current dt:dt=""r8"">0</Current><DateUtc dt:dt=""string"">2024-01-28T22:34:26Z</DateUtc></FrequencyChange></FrequencyChanges></Clock>\n",2.0.10.252,2.0.10.356,2.0.10.356,Professional,1.0.0.6
Proc3,,List11,,,,,,,988,3,987,988,739,3,0,,,,,,,,,,,,,,,,,,,,,,,,,10,1,10,,,,,,,,,,,,,,,,DelayDiscountingTitrated,01-28-2024,17:34:27,,3118,1,21,DelayDiscountingTitrated-3118-1,-950758890,1,60.018,"<?xml version=""1.0""?>\n<Clock xmlns:dt=""urn:schemas-microsoft-com:datatypes""><Description dt:dt=""string"">E-Prime Primary Realtime Clock</Description><StartTime><Timestamp dt:dt=""int"">0</Timestamp><DateUtc dt:dt=""string"">2024-01-28T22:34:26Z</DateUtc></StartTime><FrequencyChanges><FrequencyChange><Frequency dt:dt=""r8"">10000000</Frequency><Timestamp dt:dt=""r8"">8112240492101</Timestamp><Current dt:dt=""r8"">0</Current><DateUtc dt:dt=""string"">2024-01-28T22:34:26Z</DateUtc></FrequencyChange></FrequencyChanges></Clock>\n",2.0.10.252,2.0.10.356,2.0.10.356,Professional,1.0.0.6
discount3,,List6,,,,,,,,,,,,,,,,500,1 year,365,,,,,,,,,,,,,,,,,,,,,,,2,1,1,,,,,,,,,,,,,DelayDiscountingTitrated,01-28-2024,17:34:27,,3118,1,21,DelayDiscountingTitrated-3118-1,-950758890,1,60.018,"<?xml version=""1.0""?>\n<Clock xmlns:dt=""urn:schemas-microsoft-com:datatypes""><Description dt:dt=""string"">E-Prime Primary Realtime Clock</Description><StartTime><Timestamp dt:dt=""int"">0</Timestamp><DateUtc dt:dt=""string"">2024-01-28T22:34:26Z</DateUtc></StartTime><FrequencyChanges><FrequencyChange><Frequency dt:dt=""r8"">10000000</Frequency><Timestamp dt:dt=""r8"">8112240492101</Timestamp><Current dt:dt=""r8"">0</Current><DateUtc dt:dt=""string"">2024-01-28T22:34:26Z</DateUtc></FrequencyChange></FrequencyChanges></Clock>\n",2.0.10.252,2.0.10.356,2.0.10.356,Professional,1.0.0.6
oneyearproc,,List1,,,,,,,,,,,,,,,,,,,,,,4,1,4,4,,,,,,,,,,,,,,,,,,,,,,,,,,,,,,,DelayDiscountingTitrated,01-28-2024,17:34:27,,3118,1,21,DelayDiscountingTitrated-3118-1,-950758890,1,60.018,"<?xml version=""1.0""?>\n<Clock xmlns:dt=""urn:schemas-microsoft-com:datatypes""><Description dt:dt=""string"">E-Prime Primary Realtime Clock</Description><StartTime><Timestamp dt:dt=""int"">0</Timestamp><DateUtc dt:dt=""string"">2024-01-28T22:34:26Z</DateUtc></StartTime><FrequencyChanges><FrequencyChange><Frequency dt:dt=""r8"">10000000</Frequency><Timestamp dt:dt=""r8"">8112240492101</Timestamp><Current dt:dt=""r8"">0</Current><DateUtc dt:dt=""string"">2024-01-28T22:34:26Z</DateUtc></FrequencyChange></FrequencyChanges></Clock>\n",2.0.10.252,2.0.10.356,2.0.10.356,Professional,1.0.0.6
Init1,,List9,,,1851,3,0,,600,3,200,,,,,,,,,,,,,,,,,,,,,,,,,,,,,,,,,,,1,1,1,,,,,,,,,,DelayDiscountingTitrated,01-28-2024,17:34:27,,3118,1,21,DelayDiscountingTitrated-3118-1,-950758890,1,60.018,"<?xml version=""1.0""?>\n<Clock xmlns:dt=""urn:schemas-microsoft-com:datatypes""><Description dt:dt=""string"">E-Prime Primary Realtime Clock</Description><StartTime><Timestamp dt:dt=""int"">0</Timestamp><DateUtc dt:dt=""string"">2024-01-28T22:34:26Z</DateUtc></StartTime><FrequencyChanges><FrequencyChange><Frequency dt:dt=""r8"">10000000</Frequency><Timestamp dt:dt=""r8"">8112240492101</Timestamp><Current dt:dt=""r8"">0</Current><DateUtc dt:dt=""string"">2024-01-28T22:34:26Z</DateUtc></FrequencyChange></FrequencyChanges></Clock>\n",2.0.10.252,2.0.10.356,2.0.10.356,Professional,1.0.0.6
Proc1,,List9,,,,,,,800,3,600,600,432,3,0,,200,,,,,,,,,,,,,,,,,,,,,,,,,,,,,2,1,2,,,,,,,,,,DelayDiscountingTitrated,01-28-2024,17:34:27,,3118,1,21,DelayDiscountingTitrated-3118-1,-950758890,1,60.018,"<?xml version=""1.0""?>\n<Clock xmlns:dt=""urn:schemas-microsoft-com:datatypes""><Description dt:dt=""string"">E-Prime Primary Realtime Clock</Description><StartTime><Timestamp dt:dt=""int"">0</Timestamp><DateUtc dt:dt=""string"">2024-01-28T22:34:26Z</DateUtc></StartTime><FrequencyChanges><FrequencyChange><Frequency dt:dt=""r8"">10000000</Frequency><Timestamp dt:dt=""r8"">8112240492101</Timestamp><Current dt:dt=""r8"">0</Current><DateUtc dt:dt=""string"">2024-01-28T22:34:26Z</DateUtc></FrequencyChange></FrequencyChanges></Clock>\n",2.0.10.252,2.0.10.356,2.0.10.356,Professional,1.0.0.6
Proc1,,List9,,,,,,,900,3,800,800,525,3,0,,100,,,,,,,,,,,,,,,,,,,,,,,,,,,,,3,1,3,,,,,,,,,,DelayDiscountingTitrated,01-28-2024,17:34:27,,3118,1,21,DelayDiscountingTitrated-3118-1,-950758890,1,60.018,"<?xml version=""1.0""?>\n<Clock xmlns:dt=""urn:schemas-microsoft-com:datatypes""><Description dt:dt=""string"">E-Prime Primary Realtime Clock</Description><StartTime><Timestamp dt:dt=""int"">0</Timestamp><DateUtc dt:dt=""string"">2024-01-28T22:34:26Z</DateUtc></StartTime><FrequencyChanges><FrequencyChange><Frequency dt:dt=""r8"">10000000</Frequency><Timestamp dt:dt=""r8"">8112240492101</Timestamp><Current dt:dt=""r8"">0</Current><DateUtc dt:dt=""string"">2024-01-28T22:34:26Z</DateUtc></FrequencyChange></FrequencyChanges></Clock>\n",2.0.10.252,2.0.10.356,2.0.10.356,Professional,1.0.0.6
Proc1,,List9,,,,,,,950,3,900,900,823,3,0,,50,,,,,,,,,,,,,,,,,,,,,,,,,,,,,4,1,4,,,,,,,,,,DelayDiscountingTitrated,01-28-2024,17:34:27,,3118,1,21,DelayDiscountingTitrated-3118-1,-950758890,1,60.018,"<?xml version=""1.0""?>\n<Clock xmlns:dt=""urn:schemas-microsoft-com:datatypes""><Description dt:dt=""string"">E-Prime Primary Realtime Clock</Description><StartTime><Timestamp dt:dt=""int"">0</Timestamp><DateUtc dt:dt=""string"">2024-01-28T22:34:26Z</DateUtc></StartTime><FrequencyChanges><FrequencyChange><Frequency dt:dt=""r8"">10000000</Frequency><Timestamp dt:dt=""r8"">8112240492101</Timestamp><Current dt:dt=""r8"">0</Current><DateUtc dt:dt=""string"">2024-01-28T22:34:26Z</DateUtc></FrequencyChange></FrequencyChanges></Clock>\n",2.0.10.252,2.0.10.356,2.0.10.356,Professional,1.0.0.6
Proc1,,List9,,,,,,,975,3,950,950,917,3,0,,25,,,,,,,,,,,,,,,,,,,,,,,,,,,,,5,1,5,,,,,,,,,,DelayDiscountingTitrated,01-28-2024,17:34:27,,3118,1,21,DelayDiscountingTitrated-3118-1,-950758890,1,60.018,"<?xml version=""1.0""?>\n<Clock xmlns:dt=""urn:schemas-microsoft-com:datatypes""><Description dt:dt=""string"">E-Prime Primary Realtime Clock</Description><StartTime><Timestamp dt:dt=""int"">0</Timestamp><DateUtc dt:dt=""string"">2024-01-28T22:34:26Z</DateUtc></StartTime><FrequencyChanges><FrequencyChange><Frequency dt:dt=""r8"">10000000</Frequency><Timestamp dt:dt=""r8"">8112240492101</Timestamp><Current dt:dt=""r8"">0</Current><DateUtc dt:dt=""string"">2024-01-28T22:34:26Z</DateUtc></FrequencyChange></FrequencyChanges></Clock>\n",2.0.10.252,2.0.10.356,2.0.10.356,Professional,1.0.0.6
Proc1,,List9,,,,,,,963,1,975,975,2143,1,0,,12,,,,,,,,,,,,,,,,,,,,,,,,,,,,,6,1,6,,,,,,,,,,DelayDiscountingTitrated,01-28-2024,17:34:27,,3118,1,21,DelayDiscountingTitrated-3118-1,-950758890,1,60.018,"<?xml version=""1.0""?>\n<Clock xmlns:dt=""urn:schemas-microsoft-com:datatypes""><Description dt:dt=""string"">E-Prime Primary Realtime Clock</Description><StartTime><Timestamp dt:dt=""int"">0</Timestamp><DateUtc dt:dt=""string"">2024-01-28T22:34:26Z</DateUtc></StartTime><FrequencyChanges><FrequencyChange><Frequency dt:dt=""r8"">10000000</Frequency><Timestamp dt:dt=""r8"">8112240492101</Timestamp><Current dt:dt=""r8"">0</Current><DateUtc dt:dt=""string"">2024-01-28T22:34:26Z</DateUtc></FrequencyChange></FrequencyChanges></Clock>\n",2.0.10.252,2.0.10.356,2.0.10.356,Professional,1.0.0.6
Proc1,,List9,,,,,,,969,3,963,963,584,3,0,,6,,,,,,,,,,,,,,,,,,,,,,,,,,,,,7,1,7,,,,,,,,,,DelayDiscountingTitrated,01-28-2024,17:34:27,,3118,1,21,DelayDiscountingTitrated-3118-1,-950758890,1,60.018,"<?xml version=""1.0""?>\n<Clock xmlns:dt=""urn:schemas-microsoft-com:datatypes""><Description dt:dt=""string"">E-Prime Primary Realtime Clock</Description><StartTime><Timestamp dt:dt=""int"">0</Timestamp><DateUtc dt:dt=""string"">2024-01-28T22:34:26Z</DateUtc></StartTime><FrequencyChanges><FrequencyChange><Frequency dt:dt=""r8"">10000000</Frequency><Timestamp dt:dt=""r8"">8112240492101</Timestamp><Current dt:dt=""r8"">0</Current><DateUtc dt:dt=""string"">2024-01-28T22:34:26Z</DateUtc></FrequencyChange></FrequencyChanges></Clock>\n",2.0.10.252,2.0.10.356,2.0.10.356,Professional,1.0.0.6
Proc1,,List9,,,,,,,972,3,969,969,783,3,0,,3,,,,,,,,,,,,,,,,,,,,,,,,,,,,,8,1,8,,,,,,,,,,DelayDiscountingTitrated,01-28-2024,17:34:27,,3118,1,21,DelayDiscountingTitrated-3118-1,-950758890,1,60.018,"<?xml version=""1.0""?>\n<Clock xmlns:dt=""urn:schemas-microsoft-com:datatypes""><Description dt:dt=""string"">E-Prime Primary Realtime Clock</Description><StartTime><Timestamp dt:dt=""int"">0</Timestamp><DateUtc dt:dt=""string"">2024-01-28T22:34:26Z</DateUtc></StartTime><FrequencyChanges><FrequencyChange><Frequency dt:dt=""r8"">10000000</Frequency><Timestamp dt:dt=""r8"">8112240492101</Timestamp><Current dt:dt=""r8"">0</Current><DateUtc dt:dt=""string"">2024-01-28T22:34:26Z</DateUtc></FrequencyChange></FrequencyChanges></Clock>\n",2.0.10.252,2.0.10.356,2.0.10.356,Professional,1.0.0.6
Proc1,,List9,,,,,,,974,3,972,972,735,3,0,,2,,,,,,,,,,,,,,,,,,,,,,,,,,,,,9,1,9,,,,,,,,,,DelayDiscountingTitrated,01-28-2024,17:34:27,,3118,1,21,DelayDiscountingTitrated-3118-1,-950758890,1,60.018,"<?xml version=""1.0""?>\n<Clock xmlns:dt=""urn:schemas-microsoft-com:datatypes""><Description dt:dt=""string"">E-Prime Primary Realtime Clock</Description><StartTime><Timestamp dt:dt=""int"">0</Timestamp><DateUtc dt:dt=""string"">2024-01-28T22:34:26Z</DateUtc></StartTime><FrequencyChanges><FrequencyChange><Frequency dt:dt=""r8"">10000000</Frequency><Timestamp dt:dt=""r8"">8112240492101</Timestamp><Current dt:dt=""r8"">0</Current><DateUtc dt:dt=""string"">2024-01-28T22:34:26Z</DateUtc></FrequencyChange></FrequencyChanges></Clock>\n",2.0.10.252,2.0.10.356,2.0.10.356,Professional,1.0.0.6
Proc1,,List9,,,,,,,975,3,974,974,576,3,0,,1,,,,,,,,,,,,,,,,,,,,,,,,,,,,,10,1,10,,,,,,,,,,DelayDiscountingTitrated,01-28-2024,17:34:27,,3118,1,21,DelayDiscountingTitrated-3118-1,-950758890,1,60.018,"<?xml version=""1.0""?>\n<Clock xmlns:dt=""urn:schemas-microsoft-com:datatypes""><Description dt:dt=""string"">E-Prime Primary Realtime Clock</Description><StartTime><Timestamp dt:dt=""int"">0</Timestamp><DateUtc dt:dt=""string"">2024-01-28T22:34:26Z</DateUtc></StartTime><FrequencyChanges><FrequencyChange><Frequency dt:dt=""r8"">10000000</Frequency><Timestamp dt:dt=""r8"">8112240492101</Timestamp><Current dt:dt=""r8"">0</Current><DateUtc dt:dt=""string"">2024-01-28T22:34:26Z</DateUtc></FrequencyChange></FrequencyChanges></Clock>\n",2.0.10.252,2.0.10.356,2.0.10.356,Professional,1.0.0.6
Proc1,,List9,,,,,,,975,1,974,975,880,1,0,,,,,,,,,,,,,,,,,,,,,,,,,,,,,,,11,1,11,,,,,,,,,,DelayDiscountingTitrated,01-28-2024,17:34:27,,3118,1,21,DelayDiscountingTitrated-3118-1,-950758890,1,60.018,"<?xml version=""1.0""?>\n<Clock xmlns:dt=""urn:schemas-microsoft-com:datatypes""><Description dt:dt=""string"">E-Prime Primary Realtime Clock</Description><StartTime><Timestamp dt:dt=""int"">0</Timestamp><DateUtc dt:dt=""string"">2024-01-28T22:34:26Z</DateUtc></StartTime><FrequencyChanges><FrequencyChange><Frequency dt:dt=""r8"">10000000</Frequency><Timestamp dt:dt=""r8"">8112240492101</Timestamp><Current dt:dt=""r8"">0</Current><DateUtc dt:dt=""string"">2024-01-28T22:34:26Z</DateUtc></FrequencyChange></FrequencyChanges></Clock>\n",2.0.10.252,2.0.10.356,2.0.10.356,Professional,1.0.0.6
discount1,,List4,,,,,,,,,,,,,,,,200,1 month,30,,,,,,,,,,,,,,,,,,,,,,,,,,,,,1,1,1,,,,,,,DelayDiscountingTitrated,01-28-2024,17:34:27,,3118,1,21,DelayDiscountingTitrated-3118-1,-950758890,1,60.018,"<?xml version=""1.0""?>\n<Clock xmlns:dt=""urn:schemas-microsoft-com:datatypes""><Description dt:dt=""string"">E-Prime Primary Realtime Clock</Description><StartTime><Timestamp dt:dt=""int"">0</Timestamp><DateUtc dt:dt=""string"">2024-01-28T22:34:26Z</DateUtc></StartTime><FrequencyChanges><FrequencyChange><Frequency dt:dt=""r8"">10000000</Frequency><Timestamp dt:dt=""r8"">8112240492101</Timestamp><Current dt:dt=""r8"">0</Current><DateUtc dt:dt=""string"">2024-01-28T22:34:26Z</DateUtc></FrequencyChange></FrequencyChanges></Clock>\n",2.0.10.252,2.0.10.356,2.0.10.356,Professional,1.0.0.6
onemthproc,,List1,,,,,,,,,,,,,,,,,,,,,,2,1,5,5,,,,,,,,,,,,,,,,,,,,,,,,,,,,,,,DelayDiscountingTitrated,01-28-2024,17:34:27,,3118,1,21,DelayDiscountingTitrated-3118-1,-950758890,1,60.018,"<?xml version=""1.0""?>\n<Clock xmlns:dt=""urn:schemas-microsoft-com:datatypes""><Description dt:dt=""string"">E-Prime Primary Realtime Clock</Description><StartTime><Timestamp dt:dt=""int"">0</Timestamp><DateUtc dt:dt=""string"">2024-01-28T22:34:26Z</DateUtc></StartTime><FrequencyChanges><FrequencyChange><Frequency dt:dt=""r8"">10000000</Frequency><Timestamp dt:dt=""r8"">8112240492101</Timestamp><Current dt:dt=""r8"">0</Current><DateUtc dt:dt=""string"">2024-01-28T22:34:26Z</DateUtc></FrequencyChange></FrequencyChanges></Clock>\n",2.0.10.252,2.0.10.356,2.0.10.356,Professional,1.0.0.6
Init4,,List12,,,3161,3,0,,600,3,200,,,,,,,,,,,,,,,,,,,,,,,,,,,,,,,,,,,,,,,,,1,1,1,,,,DelayDiscountingTitrated,01-28-2024,17:34:27,,3118,1,21,DelayDiscountingTitrated-3118-1,-950758890,1,60.018,"<?xml version=""1.0""?>\n<Clock xmlns:dt=""urn:schemas-microsoft-com:datatypes""><Description dt:dt=""string"">E-Prime Primary Realtime Clock</Description><StartTime><Timestamp dt:dt=""int"">0</Timestamp><DateUtc dt:dt=""string"">2024-01-28T22:34:26Z</DateUtc></StartTime><FrequencyChanges><FrequencyChange><Frequency dt:dt=""r8"">10000000</Frequency><Timestamp dt:dt=""r8"">8112240492101</Timestamp><Current dt:dt=""r8"">0</Current><DateUtc dt:dt=""string"">2024-01-28T22:34:26Z</DateUtc></FrequencyChange></FrequencyChanges></Clock>\n",2.0.10.252,2.0.10.356,2.0.10.356,Professional,1.0.0.6
Proc4,,List12,,,,,,,800,3,600,600,1850,3,0,,200,,,,,,,,,,,,,,,,,,,,,,,,,,,,,,,,,,,2,1,2,,,,DelayDiscountingTitrated,01-28-2024,17:34:27,,3118,1,21,DelayDiscountingTitrated-3118-1,-950758890,1,60.018,"<?xml version=""1.0""?>\n<Clock xmlns:dt=""urn:schemas-microsoft-com:datatypes""><Description dt:dt=""string"">E-Prime Primary Realtime Clock</Description><StartTime><Timestamp dt:dt=""int"">0</Timestamp><DateUtc dt:dt=""string"">2024-01-28T22:34:26Z</DateUtc></StartTime><FrequencyChanges><FrequencyChange><Frequency dt:dt=""r8"">10000000</Frequency><Timestamp dt:dt=""r8"">8112240492101</Timestamp><Current dt:dt=""r8"">0</Current><DateUtc dt:dt=""string"">2024-01-28T22:34:26Z</DateUtc></FrequencyChange></FrequencyChanges></Clock>\n",2.0.10.252,2.0.10.356,2.0.10.356,Professional,1.0.0.6
Proc4,,List12,,,,,,,900,3,800,800,719,3,0,,100,,,,,,,,,,,,,,,,,,,,,,,,,,,,,,,,,,,3,1,3,,,,DelayDiscountingTitrated,01-28-2024,17:34:27,,3118,1,21,DelayDiscountingTitrated-3118-1,-950758890,1,60.018,"<?xml version=""1.0""?>\n<Clock xmlns:dt=""urn:schemas-microsoft-com:datatypes""><Description dt:dt=""string"">E-Prime Primary Realtime Clock</Description><StartTime><Timestamp dt:dt=""int"">0</Timestamp><DateUtc dt:dt=""string"">2024-01-28T22:34:26Z</DateUtc></StartTime><FrequencyChanges><FrequencyChange><Frequency dt:dt=""r8"">10000000</Frequency><Timestamp dt:dt=""r8"">8112240492101</Timestamp><Current dt:dt=""r8"">0</Current><DateUtc dt:dt=""string"">2024-01-28T22:34:26Z</DateUtc></FrequencyChange></FrequencyChanges></Clock>\n",2.0.10.252,2.0.10.356,2.0.10.356,Professional,1.0.0.6
Proc4,,List12,,,,,,,850,1,900,900,889,1,0,,50,,,,,,,,,,,,,,,,,,,,,,,,,,,,,,,,,,,4,1,4,,,,DelayDiscountingTitrated,01-28-2024,17:34:27,,3118,1,21,DelayDiscountingTitrated-3118-1,-950758890,1,60.018,"<?xml version=""1.0""?>\n<Clock xmlns:dt=""urn:schemas-microsoft-com:datatypes""><Description dt:dt=""string"">E-Prime Primary Realtime Clock</Description><StartTime><Timestamp dt:dt=""int"">0</Timestamp><DateUtc dt:dt=""string"">2024-01-28T22:34:26Z</DateUtc></StartTime><FrequencyChanges><FrequencyChange><Frequency dt:dt=""r8"">10000000</Frequency><Timestamp dt:dt=""r8"">8112240492101</Timestamp><Current dt:dt=""r8"">0</Current><DateUtc dt:dt=""string"">2024-01-28T22:34:26Z</DateUtc></FrequencyChange></FrequencyChanges></Clock>\n",2.0.10.252,2.0.10.356,2.0.10.356,Professional,1.0.0.6
Proc4,,List12,,,,,,,875,3,850,850,460,3,0,,25,,,,,,,,,,,,,,,,,,,,,,,,,,,,,,,,,,,5,1,5,,,,DelayDiscountingTitrated,01-28-2024,17:34:27,,3118,1,21,DelayDiscountingTitrated-3118-1,-950758890,1,60.018,"<?xml version=""1.0""?>\n<Clock xmlns:dt=""urn:schemas-microsoft-com:datatypes""><Description dt:dt=""string"">E-Prime Primary Realtime Clock</Description><StartTime><Timestamp dt:dt=""int"">0</Timestamp><DateUtc dt:dt=""string"">2024-01-28T22:34:26Z</DateUtc></StartTime><FrequencyChanges><FrequencyChange><Frequency dt:dt=""r8"">10000000</Frequency><Timestamp dt:dt=""r8"">8112240492101</Timestamp><Current dt:dt=""r8"">0</Current><DateUtc dt:dt=""string"">2024-01-28T22:34:26Z</DateUtc></FrequencyChange></FrequencyChanges></Clock>\n",2.0.10.252,2.0.10.356,2.0.10.356,Professional,1.0.0.6
Proc4,,List12,,,,,,,887,3,875,875,561,3,0,,12,,,,,,,,,,,,,,,,,,,,,,,,,,,,,,,,,,,6,1,6,,,,DelayDiscountingTitrated,01-28-2024,17:34:27,,3118,1,21,DelayDiscountingTitrated-3118-1,-950758890,1,60.018,"<?xml version=""1.0""?>\n<Clock xmlns:dt=""urn:schemas-microsoft-com:datatypes""><Description dt:dt=""string"">E-Prime Primary Realtime Clock</Description><StartTime><Timestamp dt:dt=""int"">0</Timestamp><DateUtc dt:dt=""string"">2024-01-28T22:34:26Z</DateUtc></StartTime><FrequencyChanges><FrequencyChange><Frequency dt:dt=""r8"">10000000</Frequency><Timestamp dt:dt=""r8"">8112240492101</Timestamp><Current dt:dt=""r8"">0</Current><DateUtc dt:dt=""string"">2024-01-28T22:34:26Z</DateUtc></FrequencyChange></FrequencyChanges></Clock>\n",2.0.10.252,2.0.10.356,2.0.10.356,Professional,1.0.0.6
Proc4,,List12,,,,,,,893,3,887,887,529,3,0,,6,,,,,,,,,,,,,,,,,,,,,,,,,,,,,,,,,,,7,1,7,,,,DelayDiscountingTitrated,01-28-2024,17:34:27,,3118,1,21,DelayDiscountingTitrated-3118-1,-950758890,1,60.018,"<?xml version=""1.0""?>\n<Clock xmlns:dt=""urn:schemas-microsoft-com:datatypes""><Description dt:dt=""string"">E-Prime Primary Realtime Clock</Description><StartTime><Timestamp dt:dt=""int"">0</Timestamp><DateUtc dt:dt=""string"">2024-01-28T22:34:26Z</DateUtc></StartTime><FrequencyChanges><FrequencyChange><Frequency dt:dt=""r8"">10000000</Frequency><Timestamp dt:dt=""r8"">8112240492101</Timestamp><Current dt:dt=""r8"">0</Current><DateUtc dt:dt=""string"">2024-01-28T22:34:26Z</DateUtc></FrequencyChange></FrequencyChanges></Clock>\n",2.0.10.252,2.0.10.356,2.0.10.356,Professional,1.0.0.6
Proc4,,List12,,,,,,,890,1,893,893,578,1,0,,3,,,,,,,,,,,,,,,,,,,,,,,,,,,,,,,,,,,8,1,8,,,,DelayDiscountingTitrated,01-28-2024,17:34:27,,3118,1,21,DelayDiscountingTitrated-3118-1,-950758890,1,60.018,"<?xml version=""1.0""?>\n<Clock xmlns:dt=""urn:schemas-microsoft-com:datatypes""><Description dt:dt=""string"">E-Prime Primary Realtime Clock</Description><StartTime><Timestamp dt:dt=""int"">0</Timestamp><DateUtc dt:dt=""string"">2024-01-28T22:34:26Z</DateUtc></StartTime><FrequencyChanges><FrequencyChange><Frequency dt:dt=""r8"">10000000</Frequency><Timestamp dt:dt=""r8"">8112240492101</Timestamp><Current dt:dt=""r8"">0</Current><DateUtc dt:dt=""string"">2024-01-28T22:34:26Z</DateUtc></FrequencyChange></FrequencyChanges></Clock>\n",2.0.10.252,2.0.10.356,2.0.10.356,Professional,1.0.0.6
Proc4,,List12,,,,,,,888,1,890,890,881,1,0,,2,,,,,,,,,,,,,,,,,,,,,,,,,,,,,,,,,,,9,1,9,,,,DelayDiscountingTitrated,01-28-2024,17:34:27,,3118,1,21,DelayDiscountingTitrated-3118-1,-950758890,1,60.018,"<?xml version=""1.0""?>\n<Clock xmlns:dt=""urn:schemas-microsoft-com:datatypes""><Description dt:dt=""string"">E-Prime Primary Realtime Clock</Description><StartTime><Timestamp dt:dt=""int"">0</Timestamp><DateUtc dt:dt=""string"">2024-01-28T22:34:26Z</DateUtc></StartTime><FrequencyChanges><FrequencyChange><Frequency dt:dt=""r8"">10000000</Frequency><Timestamp dt:dt=""r8"">8112240492101</Timestamp><Current dt:dt=""r8"">0</Current><DateUtc dt:dt=""string"">2024-01-28T22:34:26Z</DateUtc></FrequencyChange></FrequencyChanges></Clock>\n",2.0.10.252,2.0.10.356,2.0.10.356,Professional,1.0.0.6
Proc4,,List12,,,,,,,889,3,888,888,572,3,0,,1,,,,,,,,,,,,,,,,,,,,,,,,,,,,,,,,,,,10,1,10,,,,DelayDiscountingTitrated,01-28-2024,17:34:27,,3118,1,21,DelayDiscountingTitrated-3118-1,-950758890,1,60.018,"<?xml version=""1.0""?>\n<Clock xmlns:dt=""urn:schemas-microsoft-com:datatypes""><Description dt:dt=""string"">E-Prime Primary Realtime Clock</Description><StartTime><Timestamp dt:dt=""int"">0</Timestamp><DateUtc dt:dt=""string"">2024-01-28T22:34:26Z</DateUtc></StartTime><FrequencyChanges><FrequencyChange><Frequency dt:dt=""r8"">10000000</Frequency><Timestamp dt:dt=""r8"">8112240492101</Timestamp><Current dt:dt=""r8"">0</Current><DateUtc dt:dt=""string"">2024-01-28T22:34:26Z</DateUtc></FrequencyChange></FrequencyChanges></Clock>\n",2.0.10.252,2.0.10.356,2.0.10.356,Professional,1.0.0.6
Proc4,,List12,,,,,,,889,1,888,889,444,1,0,,,,,,,,,,,,,,,,,,,,,,,,,,,,,,,,,,,,,11,1,11,,,,DelayDiscountingTitrated,01-28-2024,17:34:27,,3118,1,21,DelayDiscountingTitrated-3118-1,-950758890,1,60.018,"<?xml version=""1.0""?>\n<Clock xmlns:dt=""urn:schemas-microsoft-com:datatypes""><Description dt:dt=""string"">E-Prime Primary Realtime Clock</Description><StartTime><Timestamp dt:dt=""int"">0</Timestamp><DateUtc dt:dt=""string"">2024-01-28T22:34:26Z</DateUtc></StartTime><FrequencyChanges><FrequencyChange><Frequency dt:dt=""r8"">10000000</Frequency><Timestamp dt:dt=""r8"">8112240492101</Timestamp><Current dt:dt=""r8"">0</Current><DateUtc dt:dt=""string"">2024-01-28T22:34:26Z</DateUtc></FrequencyChange></FrequencyChanges></Clock>\n",2.0.10.252,2.0.10.356,2.0.10.356,Professional,1.0.0.6
discount4,,List7,,,,,,,,,,,,,,,,200,5 years,1825,,,,,,,,,,,,,,,,,,,,,,,,,,,,,,,,,,,1,1,1,DelayDiscountingTitrated,01-28-2024,17:34:27,,3118,1,21,DelayDiscountingTitrated-3118-1,-950758890,1,60.018,"<?xml version=""1.0""?>\n<Clock xmlns:dt=""urn:schemas-microsoft-com:datatypes""><Description dt:dt=""string"">E-Prime Primary Realtime Clock</Description><StartTime><Timestamp dt:dt=""int"">0</Timestamp><DateUtc dt:dt=""string"">2024-01-28T22:34:26Z</DateUtc></StartTime><FrequencyChanges><FrequencyChange><Frequency dt:dt=""r8"">10000000</Frequency><Timestamp dt:dt=""r8"">8112240492101</Timestamp><Current dt:dt=""r8"">0</Current><DateUtc dt:dt=""string"">2024-01-28T22:34:26Z</DateUtc></FrequencyChange></FrequencyChanges></Clock>\n",2.0.10.252,2.0.10.356,2.0.10.356,Professional,1.0.0.6
fiveyearproc,,List1,,,,,,,,,,,,,,,,,,,,,,5,1,6,6,,,,,,,,,,,,,,,,,,,,,,,,,,,,,,,DelayDiscountingTitrated,01-28-2024,17:34:27,,3118,1,21,DelayDiscountingTitrated-3118-1,-950758890,1,60.018,"<?xml version=""1.0""?>\n<Clock xmlns:dt=""urn:schemas-microsoft-com:datatypes""><Description dt:dt=""string"">E-Prime Primary Realtime Clock</Description><StartTime><Timestamp dt:dt=""int"">0</Timestamp><DateUtc dt:dt=""string"">2024-01-28T22:34:26Z</DateUtc></StartTime><FrequencyChanges><FrequencyChange><Frequency dt:dt=""r8"">10000000</Frequency><Timestamp dt:dt=""r8"">8112240492101</Timestamp><Current dt:dt=""r8"">0</Current><DateUtc dt:dt=""string"">2024-01-28T22:34:26Z</DateUtc></FrequencyChange></FrequencyChanges></Clock>\n",2.0.10.252,2.0.10.356,2.0.10.356,Professional,1.0.0.6
,,,,,,,,,,,,,,,,,,,,,,,,,,,,,,,,,,,,,,,,,,,,,,,,,,,,,,,,,,DelayDiscountingTitrated,01-28-2024,17:34:27,,3118,1,21,DelayDiscountingTitrated-3118-1,-950758890,1,60.018,"<?xml version=""1.0""?>\n<Clock xmlns:dt=""urn:schemas-microsoft-com:datatypes""><Description dt:dt=""string"">E-Prime Primary Realtime Clock</Description><StartTime><Timestamp dt:dt=""int"">0</Timestamp><DateUtc dt:dt=""string"">2024-01-28T22:34:26Z</DateUtc></StartTime><FrequencyChanges><FrequencyChange><Frequency dt:dt=""r8"">10000000</Frequency><Timestamp dt:dt=""r8"">8112240492101</Timestamp><Current dt:dt=""r8"">0</Current><DateUtc dt:dt=""string"">2024-01-28T22:34:26Z</DateUtc></FrequencyChange></FrequencyChanges></Clock>\n",2.0.10.252,2.0.10.356,2.0.10.356,Professional,1.0.0.6
