Procedure,List10,Running,List10.Cycle,List10.Sample,Slide2.RT,Slide2.RESP,Slide4.RT,Slide4.RESP,immed3,respprev,prevalue,imstring,Slide1.RT,Slide1.RESP,Slide5.RT,Slide5.RESP,immed5,immed,delaypd,timedays,List5,List5.Cycle,List5.Sample,List1,List1.Cycle,List1.Sample,roundnumber,List2,List2.Cycle,List2.Sample,List3,List3.Cycle,List3.Sample,List12,List12.Cycle,List12.Sample,List7,List7.Cycle,List7.Sample,List13,List13.Cycle,List13.Sample,List8,List8.Cycle,List8.Sample,List11,List11.Cycle,List11.Sample,List6,List6.Cycle,List6.Sample,List9,List9.Cycle,List9.Sample,List4,List4.Cycle,List4.Sample,Experiment,SessionDate,SessionTime,SessionStartDateTimeUtc,Subject,Session,Age,DataFile.Basename,RandomSeed,Group,Display.RefreshRate,Clock.Information,StudioVersion,RuntimeVersion,RuntimeVersionExpected,RuntimeCapabilities,ExperimentVersion
Init2,1,List10,1,1,5276,1,0,,400,1,800,,,,,,,,,,,,,,,,,,,,,,,,,,,,,,,,,,,,,,,,,,,,,,,DelayDiscountingTitrated Backup1,01-14-2024,15:23:18,1/14/2024 8:23:18 PM,2011,1,15,DelayDiscountingTitrated Backup1-2011-1,537854484,1,60.017,"<?xml version=""1.0""?>\n<Clock xmlns:dt=""urn:schemas-microsoft-com:datatypes""><Description dt:dt=""string"">E-Prime Primary Realtime Clock</Description><StartTime><Timestamp dt:dt=""int"">0</Timestamp><DateUtc dt:dt=""string"">2024-01-14T20:23:18Z</DateUtc></StartTime><FrequencyChanges><FrequencyChange><Frequency dt:dt=""r8"">10000000</Frequency><Timestamp dt:dt=""r8"">4832374065308</Timestamp><Current dt:dt=""r8"">0</Current><DateUtc dt:dt=""string"">2024-01-14T20:23:18Z</DateUtc></FrequencyChange></FrequencyChanges></Clock>\n",2.0.10.252,2.0.10.356,2.0.10.356,Professional,1.0.0.1
Proc2,2,List10,1,2,,,,,600,3,400,400,4688,3,0,,200,,,,,,,,,,,,,,,,,,,,,,,,,,,,,,,,,,,,,,,,,DelayDiscountingTitrated Backup1,01-14-2024,15:23:18,1/14/2024 8:23:18 PM,2011,1,15,DelayDiscountingTitrated Backup1-2011-1,537854484,1,60.017,"<?xml version=""1.0""?>\n<Clock xmlns:dt=""urn:schemas-microsoft-com:datatypes""><Description dt:dt=""string"">E-Prime Primary Realtime Clock</Description><StartTime><Timestamp dt:dt=""int"">0</Timestamp><DateUtc dt:dt=""string"">2024-01-14T20:23:18Z</DateUtc></StartTime><FrequencyChanges><FrequencyChange><Frequency dt:dt=""r8"">10000000</Frequency><Timestamp dt:dt=""r8"">4832374065308</Timestamp><Current dt:dt=""r8"">0</Current><DateUtc dt:dt=""string"">2024-01-14T20:23:18Z</DateUtc></FrequencyChange></FrequencyChanges></Clock>\n",2.0.10.252,2.0.10.356,2.0.10.356,Professional,1.0.0.1
Proc2,3,List10,1,3,,,,,700,3,600,600,3621,3,0,,100,,,,,,,,,,,,,,,,,,,,,,,,,,,,,,,,,,,,,,,,,DelayDiscountingTitrated Backup1,01-14-2024,15:23:18,1/14/2024 8:23:18 PM,2011,1,15,DelayDiscountingTitrated Backup1-2011-1,537854484,1,60.017,"<?xml version=""1.0""?>\n<Clock xmlns:dt=""urn:schemas-microsoft-com:datatypes""><Description dt:dt=""string"">E-Prime Primary Realtime Clock</Description><StartTime><Timestamp dt:dt=""int"">0</Timestamp><DateUtc dt:dt=""string"">2024-01-14T20:23:18Z</DateUtc></StartTime><FrequencyChanges><FrequencyChange><Frequency dt:dt=""r8"">10000000</Frequency><Timestamp dt:dt=""r8"">4832374065308</Timestamp><Current dt:dt=""r8"">0</Current><DateUtc dt:dt=""string"">2024-01-14T20:23:18Z</DateUtc></FrequencyChange></FrequencyChanges></Clock>\n",2.0.10.252,2.0.10.356,2.0.10.356,Professional,1.0.0.1
Proc2,4,List10,1,4,,,,,650,1,700,700,4939,1,0,,50,,,,,,,,,,,,,,,,,,,,,,,,,,,,,,,,,,,,,,,,,DelayDiscountingTitrated Backup1,01-14-2024,15:23:18,1/14/2024 8:23:18 PM,2011,1,15,DelayDiscountingTitrated Backup1-2011-1,537854484,1,60.017,"<?xml version=""1.0""?>\n<Clock xmlns:dt=""urn:schemas-microsoft-com:datatypes""><Description dt:dt=""string"">E-Prime Primary Realtime Clock</Description><StartTime><Timestamp dt:dt=""int"">0</Timestamp><DateUtc dt:dt=""string"">2024-01-14T20:23:18Z</DateUtc></StartTime><FrequencyChanges><FrequencyChange><Frequency dt:dt=""r8"">10000000</Frequency><Timestamp dt:dt=""r8"">4832374065308</Timestamp><Current dt:dt=""r8"">0</Current><DateUtc dt:dt=""string"">2024-01-14T20:23:18Z</DateUtc></FrequencyChange></FrequencyChanges></Clock>\n",2.0.10.252,2.0.10.356,2.0.10.356,Professional,1.0.0.1
Proc2,5,List10,1,5,,,,,675,3,650,650,2374,3,0,,25,,,,,,,,,,,,,,,,,,,,,,,,,,,,,,,,,,,,,,,,,DelayDiscountingTitrated Backup1,01-14-2024,15:23:18,1/14/2024 8:23:18 PM,2011,1,15,DelayDiscountingTitrated Backup1-2011-1,537854484,1,60.017,"<?xml version=""1.0""?>\n<Clock xmlns:dt=""urn:schemas-microsoft-com:datatypes""><Description dt:dt=""string"">E-Prime Primary Realtime Clock</Description><StartTime><Timestamp dt:dt=""int"">0</Timestamp><DateUtc dt:dt=""string"">2024-01-14T20:23:18Z</DateUtc></StartTime><FrequencyChanges><FrequencyChange><Frequency dt:dt=""r8"">10000000</Frequency><Timestamp dt:dt=""r8"">4832374065308</Timestamp><Current dt:dt=""r8"">0</Current><DateUtc dt:dt=""string"">2024-01-14T20:23:18Z</DateUtc></FrequencyChange></FrequencyChanges></Clock>\n",2.0.10.252,2.0.10.356,2.0.10.356,Professional,1.0.0.1
Proc2,6,List10,1,6,,,,,687,3,675,675,1702,3,0,,12,,,,,,,,,,,,,,,,,,,,,,,,,,,,,,,,,,,,,,,,,DelayDiscountingTitrated Backup1,01-14-2024,15:23:18,1/14/2024 8:23:18 PM,2011,1,15,DelayDiscountingTitrated Backup1-2011-1,537854484,1,60.017,"<?xml version=""1.0""?>\n<Clock xmlns:dt=""urn:schemas-microsoft-com:datatypes""><Description dt:dt=""string"">E-Prime Primary Realtime Clock</Description><StartTime><Timestamp dt:dt=""int"">0</Timestamp><DateUtc dt:dt=""string"">2024-01-14T20:23:18Z</DateUtc></StartTime><FrequencyChanges><FrequencyChange><Frequency dt:dt=""r8"">10000000</Frequency><Timestamp dt:dt=""r8"">4832374065308</Timestamp><Current dt:dt=""r8"">0</Current><DateUtc dt:dt=""string"">2024-01-14T20:23:18Z</DateUtc></FrequencyChange></FrequencyChanges></Clock>\n",2.0.10.252,2.0.10.356,2.0.10.356,Professional,1.0.0.1
Proc2,7,List10,1,7,,,,,693,3,687,687,1785,3,0,,6,,,,,,,,,,,,,,,,,,,,,,,,,,,,,,,,,,,,,,,,,DelayDiscountingTitrated Backup1,01-14-2024,15:23:18,1/14/2024 8:23:18 PM,2011,1,15,DelayDiscountingTitrated Backup1-2011-1,537854484,1,60.017,"<?xml version=""1.0""?>\n<Clock xmlns:dt=""urn:schemas-microsoft-com:datatypes""><Description dt:dt=""string"">E-Prime Primary Realtime Clock</Description><StartTime><Timestamp dt:dt=""int"">0</Timestamp><DateUtc dt:dt=""string"">2024-01-14T20:23:18Z</DateUtc></StartTime><FrequencyChanges><FrequencyChange><Frequency dt:dt=""r8"">10000000</Frequency><Timestamp dt:dt=""r8"">4832374065308</Timestamp><Current dt:dt=""r8"">0</Current><DateUtc dt:dt=""string"">2024-01-14T20:23:18Z</DateUtc></FrequencyChange></FrequencyChanges></Clock>\n",2.0.10.252,2.0.10.356,2.0.10.356,Professional,1.0.0.1
Proc2,8,List10,1,8,,,,,690,1,693,693,2713,1,0,,3,,,,,,,,,,,,,,,,,,,,,,,,,,,,,,,,,,,,,,,,,DelayDiscountingTitrated Backup1,01-14-2024,15:23:18,1/14/2024 8:23:18 PM,2011,1,15,DelayDiscountingTitrated Backup1-2011-1,537854484,1,60.017,"<?xml version=""1.0""?>\n<Clock xmlns:dt=""urn:schemas-microsoft-com:datatypes""><Description dt:dt=""string"">E-Prime Primary Realtime Clock</Description><StartTime><Timestamp dt:dt=""int"">0</Timestamp><DateUtc dt:dt=""string"">2024-01-14T20:23:18Z</DateUtc></StartTime><FrequencyChanges><FrequencyChange><Frequency dt:dt=""r8"">10000000</Frequency><Timestamp dt:dt=""r8"">4832374065308</Timestamp><Current dt:dt=""r8"">0</Current><DateUtc dt:dt=""string"">2024-01-14T20:23:18Z</DateUtc></FrequencyChange></FrequencyChanges></Clock>\n",2.0.10.252,2.0.10.356,2.0.10.356,Professional,1.0.0.1
Proc2,9,List10,1,9,,,,,688,1,690,690,2035,1,0,,2,,,,,,,,,,,,,,,,,,,,,,,,,,,,,,,,,,,,,,,,,DelayDiscountingTitrated Backup1,01-14-2024,15:23:18,1/14/2024 8:23:18 PM,2011,1,15,DelayDiscountingTitrated Backup1-2011-1,537854484,1,60.017,"<?xml version=""1.0""?>\n<Clock xmlns:dt=""urn:schemas-microsoft-com:datatypes""><Description dt:dt=""string"">E-Prime Primary Realtime Clock</Description><StartTime><Timestamp dt:dt=""int"">0</Timestamp><DateUtc dt:dt=""string"">2024-01-14T20:23:18Z</DateUtc></StartTime><FrequencyChanges><FrequencyChange><Frequency dt:dt=""r8"">10000000</Frequency><Timestamp dt:dt=""r8"">4832374065308</Timestamp><Current dt:dt=""r8"">0</Current><DateUtc dt:dt=""string"">2024-01-14T20:23:18Z</DateUtc></FrequencyChange></FrequencyChanges></Clock>\n",2.0.10.252,2.0.10.356,2.0.10.356,Professional,1.0.0.1
Proc2,10,List10,1,10,,,,,689,3,688,688,2321,3,0,,1,,,,,,,,,,,,,,,,,,,,,,,,,,,,,,,,,,,,,,,,,DelayDiscountingTitrated Backup1,01-14-2024,15:23:18,1/14/2024 8:23:18 PM,2011,1,15,DelayDiscountingTitrated Backup1-2011-1,537854484,1,60.017,"<?xml version=""1.0""?>\n<Clock xmlns:dt=""urn:schemas-microsoft-com:datatypes""><Description dt:dt=""string"">E-Prime Primary Realtime Clock</Description><StartTime><Timestamp dt:dt=""int"">0</Timestamp><DateUtc dt:dt=""string"">2024-01-14T20:23:18Z</DateUtc></StartTime><FrequencyChanges><FrequencyChange><Frequency dt:dt=""r8"">10000000</Frequency><Timestamp dt:dt=""r8"">4832374065308</Timestamp><Current dt:dt=""r8"">0</Current><DateUtc dt:dt=""string"">2024-01-14T20:23:18Z</DateUtc></FrequencyChange></FrequencyChanges></Clock>\n",2.0.10.252,2.0.10.356,2.0.10.356,Professional,1.0.0.1
Proc2,11,List10,1,11,,,,,689,3,688,689,1915,3,0,,,,,,,,,,,,,,,,,,,,,,,,,,,,,,,,,,,,,,,,,,,DelayDiscountingTitrated Backup1,01-14-2024,15:23:18,1/14/2024 8:23:18 PM,2011,1,15,DelayDiscountingTitrated Backup1-2011-1,537854484,1,60.017,"<?xml version=""1.0""?>\n<Clock xmlns:dt=""urn:schemas-microsoft-com:datatypes""><Description dt:dt=""string"">E-Prime Primary Realtime Clock</Description><StartTime><Timestamp dt:dt=""int"">0</Timestamp><DateUtc dt:dt=""string"">2024-01-14T20:23:18Z</DateUtc></StartTime><FrequencyChanges><FrequencyChange><Frequency dt:dt=""r8"">10000000</Frequency><Timestamp dt:dt=""r8"">4832374065308</Timestamp><Current dt:dt=""r8"">0</Current><DateUtc dt:dt=""string"">2024-01-14T20:23:18Z</DateUtc></FrequencyChange></FrequencyChanges></Clock>\n",2.0.10.252,2.0.10.356,2.0.10.356,Professional,1.0.0.1
discount2,,List5,,,,,,,,,,,,,,,,800,6 month,180,3,1,1,,,,,,,,,,,,,,,,,,,,,,,,,,,,,,,,,,,DelayDiscountingTitrated Backup1,01-14-2024,15:23:18,1/14/2024 8:23:18 PM,2011,1,15,DelayDiscountingTitrated Backup1-2011-1,537854484,1,60.017,"<?xml version=""1.0""?>\n<Clock xmlns:dt=""urn:schemas-microsoft-com:datatypes""><Description dt:dt=""string"">E-Prime Primary Realtime Clock</Description><StartTime><Timestamp dt:dt=""int"">0</Timestamp><DateUtc dt:dt=""string"">2024-01-14T20:23:18Z</DateUtc></StartTime><FrequencyChanges><FrequencyChange><Frequency dt:dt=""r8"">10000000</Frequency><Timestamp dt:dt=""r8"">4832374065308</Timestamp><Current dt:dt=""r8"">0</Current><DateUtc dt:dt=""string"">2024-01-14T20:23:18Z</DateUtc></FrequencyChange></FrequencyChanges></Clock>\n",2.0.10.252,2.0.10.356,2.0.10.356,Professional,1.0.0.1
sixmthproc,,List1,,,,,,,,,,,,,,,,,,,,,,3,1,1,1,,,,,,,,,,,,,,,,,,,,,,,,,,,,,,,DelayDiscountingTitrated Backup1,01-14-2024,15:23:18,1/14/2024 8:23:18 PM,2011,1,15,DelayDiscountingTitrated Backup1-2011-1,537854484,1,60.017,"<?xml version=""1.0""?>\n<Clock xmlns:dt=""urn:schemas-microsoft-com:datatypes""><Description dt:dt=""string"">E-Prime Primary Realtime Clock</Description><StartTime><Timestamp dt:dt=""int"">0</Timestamp><DateUtc dt:dt=""string"">2024-01-14T20:23:18Z</DateUtc></StartTime><FrequencyChanges><FrequencyChange><Frequency dt:dt=""r8"">10000000</Frequency><Timestamp dt:dt=""r8"">4832374065308</Timestamp><Current dt:dt=""r8"">0</Current><DateUtc dt:dt=""string"">2024-01-14T20:23:18Z</DateUtc></FrequencyChange></FrequencyChanges></Clock>\n",2.0.10.252,2.0.10.356,2.0.10.356,Professional,1.0.0.1
TrialProcInit,,List2,,,2660,3,0,,900,3,800,,,,,,,,,,,,,,,,,1,1,1,,,,,,,,,,,,,,,,,,,,,,,,,,,,DelayDiscountingTitrated Backup1,01-14-2024,15:23:18,1/14/2024 8:23:18 PM,2011,1,15,DelayDiscountingTitrated Backup1-2011-1,537854484,1,60.017,"<?xml version=""1.0""?>\n<Clock xmlns:dt=""urn:schemas-microsoft-com:datatypes""><Description dt:dt=""string"">E-Prime Primary Realtime Clock</Description><StartTime><Timestamp dt:dt=""int"">0</Timestamp><DateUtc dt:dt=""string"">2024-01-14T20:23:18Z</DateUtc></StartTime><FrequencyChanges><FrequencyChange><Frequency dt:dt=""r8"">10000000</Frequency><Timestamp dt:dt=""r8"">4832374065308</Timestamp><Current dt:dt=""r8"">0</Current><DateUtc dt:dt=""string"">2024-01-14T20:23:18Z</DateUtc></FrequencyChange></FrequencyChanges></Clock>\n",2.0.10.252,2.0.10.356,2.0.10.356,Professional,1.0.0.1
TrialProc,,List2,,,,,,,950,3,900,900,4272,3,0,,50,,,,,,,,,,,2,1,2,,,,,,,,,,,,,,,,,,,,,,,,,,,,DelayDiscountingTitrated Backup1,01-14-2024,15:23:18,1/14/2024 8:23:18 PM,2011,1,15,DelayDiscountingTitrated Backup1-2011-1,537854484,1,60.017,"<?xml version=""1.0""?>\n<Clock xmlns:dt=""urn:schemas-microsoft-com:datatypes""><Description dt:dt=""string"">E-Prime Primary Realtime Clock</Description><StartTime><Timestamp dt:dt=""int"">0</Timestamp><DateUtc dt:dt=""string"">2024-01-14T20:23:18Z</DateUtc></StartTime><FrequencyChanges><FrequencyChange><Frequency dt:dt=""r8"">10000000</Frequency><Timestamp dt:dt=""r8"">4832374065308</Timestamp><Current dt:dt=""r8"">0</Current><DateUtc dt:dt=""string"">2024-01-14T20:23:18Z</DateUtc></FrequencyChange></FrequencyChanges></Clock>\n",2.0.10.252,2.0.10.356,2.0.10.356,Professional,1.0.0.1
TrialProc,,List2,,,,,,,925,1,950,950,1893,1,0,,25,,,,,,,,,,,3,1,3,,,,,,,,,,,,,,,,,,,,,,,,,,,,DelayDiscountingTitrated Backup1,01-14-2024,15:23:18,1/14/2024 8:23:18 PM,2011,1,15,DelayDiscountingTitrated Backup1-2011-1,537854484,1,60.017,"<?xml version=""1.0""?>\n<Clock xmlns:dt=""urn:schemas-microsoft-com:datatypes""><Description dt:dt=""string"">E-Prime Primary Realtime Clock</Description><StartTime><Timestamp dt:dt=""int"">0</Timestamp><DateUtc dt:dt=""string"">2024-01-14T20:23:18Z</DateUtc></StartTime><FrequencyChanges><FrequencyChange><Frequency dt:dt=""r8"">10000000</Frequency><Timestamp dt:dt=""r8"">4832374065308</Timestamp><Current dt:dt=""r8"">0</Current><DateUtc dt:dt=""string"">2024-01-14T20:23:18Z</DateUtc></FrequencyChange></FrequencyChanges></Clock>\n",2.0.10.252,2.0.10.356,2.0.10.356,Professional,1.0.0.1
TrialProc,,List2,,,,,,,937,3,925,925,1568,3,0,,12,,,,,,,,,,,4,1,4,,,,,,,,,,,,,,,,,,,,,,,,,,,,DelayDiscountingTitrated Backup1,01-14-2024,15:23:18,1/14/2024 8:23:18 PM,2011,1,15,DelayDiscountingTitrated Backup1-2011-1,537854484,1,60.017,"<?xml version=""1.0""?>\n<Clock xmlns:dt=""urn:schemas-microsoft-com:datatypes""><Description dt:dt=""string"">E-Prime Primary Realtime Clock</Description><StartTime><Timestamp dt:dt=""int"">0</Timestamp><DateUtc dt:dt=""string"">2024-01-14T20:23:18Z</DateUtc></StartTime><FrequencyChanges><FrequencyChange><Frequency dt:dt=""r8"">10000000</Frequency><Timestamp dt:dt=""r8"">4832374065308</Timestamp><Current dt:dt=""r8"">0</Current><DateUtc dt:dt=""string"">2024-01-14T20:23:18Z</DateUtc></FrequencyChange></FrequencyChanges></Clock>\n",2.0.10.252,2.0.10.356,2.0.10.356,Professional,1.0.0.1
TrialProc,,List2,,,,,,,943,3,937,937,1488,3,0,,6,,,,,,,,,,,5,1,5,,,,,,,,,,,,,,,,,,,,,,,,,,,,DelayDiscountingTitrated Backup1,01-14-2024,15:23:18,1/14/2024 8:23:18 PM,2011,1,15,DelayDiscountingTitrated Backup1-2011-1,537854484,1,60.017,"<?xml version=""1.0""?>\n<Clock xmlns:dt=""urn:schemas-microsoft-com:datatypes""><Description dt:dt=""string"">E-Prime Primary Realtime Clock</Description><StartTime><Timestamp dt:dt=""int"">0</Timestamp><DateUtc dt:dt=""string"">2024-01-14T20:23:18Z</DateUtc></StartTime><FrequencyChanges><FrequencyChange><Frequency dt:dt=""r8"">10000000</Frequency><Timestamp dt:dt=""r8"">4832374065308</Timestamp><Current dt:dt=""r8"">0</Current><DateUtc dt:dt=""string"">2024-01-14T20:23:18Z</DateUtc></FrequencyChange></FrequencyChanges></Clock>\n",2.0.10.252,2.0.10.356,2.0.10.356,Professional,1.0.0.1
TrialProc,,List2,,,,,,,946,3,943,943,1124,3,0,,3,,,,,,,,,,,6,1,6,,,,,,,,,,,,,,,,,,,,,,,,,,,,DelayDiscountingTitrated Backup1,01-14-2024,15:23:18,1/14/2024 8:23:18 PM,2011,1,15,DelayDiscountingTitrated Backup1-2011-1,537854484,1,60.017,"<?xml version=""1.0""?>\n<Clock xmlns:dt=""urn:schemas-microsoft-com:datatypes""><Description dt:dt=""string"">E-Prime Primary Realtime Clock</Description><StartTime><Timestamp dt:dt=""int"">0</Timestamp><DateUtc dt:dt=""string"">2024-01-14T20:23:18Z</DateUtc></StartTime><FrequencyChanges><FrequencyChange><Frequency dt:dt=""r8"">10000000</Frequency><Timestamp dt:dt=""r8"">4832374065308</Timestamp><Current dt:dt=""r8"">0</Current><DateUtc dt:dt=""string"">2024-01-14T20:23:18Z</DateUtc></FrequencyChange></FrequencyChanges></Clock>\n",2.0.10.252,2.0.10.356,2.0.10.356,Professional,1.0.0.1
TrialProc,,List2,,,,,,,948,3,946,946,886,3,0,,2,,,,,,,,,,,7,1,7,,,,,,,,,,,,,,,,,,,,,,,,,,,,DelayDiscountingTitrated Backup1,01-14-2024,15:23:18,1/14/2024 8:23:18 PM,2011,1,15,DelayDiscountingTitrated Backup1-2011-1,537854484,1,60.017,"<?xml version=""1.0""?>\n<Clock xmlns:dt=""urn:schemas-microsoft-com:datatypes""><Description dt:dt=""string"">E-Prime Primary Realtime Clock</Description><StartTime><Timestamp dt:dt=""int"">0</Timestamp><DateUtc dt:dt=""string"">2024-01-14T20:23:18Z</DateUtc></StartTime><FrequencyChanges><FrequencyChange><Frequency dt:dt=""r8"">10000000</Frequency><Timestamp dt:dt=""r8"">4832374065308</Timestamp><Current dt:dt=""r8"">0</Current><DateUtc dt:dt=""string"">2024-01-14T20:23:18Z</DateUtc></FrequencyChange></FrequencyChanges></Clock>\n",2.0.10.252,2.0.10.356,2.0.10.356,Professional,1.0.0.1
TrialProc,,List2,,,,,,,949,3,948,948,1817,3,0,,1,,,,,,,,,,,8,1,8,,,,,,,,,,,,,,,,,,,,,,,,,,,,DelayDiscountingTitrated Backup1,01-14-2024,15:23:18,1/14/2024 8:23:18 PM,2011,1,15,DelayDiscountingTitrated Backup1-2011-1,537854484,1,60.017,"<?xml version=""1.0""?>\n<Clock xmlns:dt=""urn:schemas-microsoft-com:datatypes""><Description dt:dt=""string"">E-Prime Primary Realtime Clock</Description><StartTime><Timestamp dt:dt=""int"">0</Timestamp><DateUtc dt:dt=""string"">2024-01-14T20:23:18Z</DateUtc></StartTime><FrequencyChanges><FrequencyChange><Frequency dt:dt=""r8"">10000000</Frequency><Timestamp dt:dt=""r8"">4832374065308</Timestamp><Current dt:dt=""r8"">0</Current><DateUtc dt:dt=""string"">2024-01-14T20:23:18Z</DateUtc></FrequencyChange></FrequencyChanges></Clock>\n",2.0.10.252,2.0.10.356,2.0.10.356,Professional,1.0.0.1
TrialProc,,List2,,,,,,,949,3,948,949,975,3,0,,,,,,,,,,,,,9,1,9,,,,,,,,,,,,,,,,,,,,,,,,,,,,DelayDiscountingTitrated Backup1,01-14-2024,15:23:18,1/14/2024 8:23:18 PM,2011,1,15,DelayDiscountingTitrated Backup1-2011-1,537854484,1,60.017,"<?xml version=""1.0""?>\n<Clock xmlns:dt=""urn:schemas-microsoft-com:datatypes""><Description dt:dt=""string"">E-Prime Primary Realtime Clock</Description><StartTime><Timestamp dt:dt=""int"">0</Timestamp><DateUtc dt:dt=""string"">2024-01-14T20:23:18Z</DateUtc></StartTime><FrequencyChanges><FrequencyChange><Frequency dt:dt=""r8"">10000000</Frequency><Timestamp dt:dt=""r8"">4832374065308</Timestamp><Current dt:dt=""r8"">0</Current><DateUtc dt:dt=""string"">2024-01-14T20:23:18Z</DateUtc></FrequencyChange></FrequencyChanges></Clock>\n",2.0.10.252,2.0.10.356,2.0.10.356,Professional,1.0.0.1
discount,,List3,,,,,,,,,,,,,,,,800,1 week,7,,,,,,,,,,,3,1,1,,,,,,,,,,,,,,,,,,,,,,,,,DelayDiscountingTitrated Backup1,01-14-2024,15:23:18,1/14/2024 8:23:18 PM,2011,1,15,DelayDiscountingTitrated Backup1-2011-1,537854484,1,60.017,"<?xml version=""1.0""?>\n<Clock xmlns:dt=""urn:schemas-microsoft-com:datatypes""><Description dt:dt=""string"">E-Prime Primary Realtime Clock</Description><StartTime><Timestamp dt:dt=""int"">0</Timestamp><DateUtc dt:dt=""string"">2024-01-14T20:23:18Z</DateUtc></StartTime><FrequencyChanges><FrequencyChange><Frequency dt:dt=""r8"">10000000</Frequency><Timestamp dt:dt=""r8"">4832374065308</Timestamp><Current dt:dt=""r8"">0</Current><DateUtc dt:dt=""string"">2024-01-14T20:23:18Z</DateUtc></FrequencyChange></FrequencyChanges></Clock>\n",2.0.10.252,2.0.10.356,2.0.10.356,Professional,1.0.0.1
onewkproc,,List1,,,,,,,,,,,,,,,,,,,,,,1,1,2,2,,,,,,,,,,,,,,,,,,,,,,,,,,,,,,,DelayDiscountingTitrated Backup1,01-14-2024,15:23:18,1/14/2024 8:23:18 PM,2011,1,15,DelayDiscountingTitrated Backup1-2011-1,537854484,1,60.017,"<?xml version=""1.0""?>\n<Clock xmlns:dt=""urn:schemas-microsoft-com:datatypes""><Description dt:dt=""string"">E-Prime Primary Realtime Clock</Description><StartTime><Timestamp dt:dt=""int"">0</Timestamp><DateUtc dt:dt=""string"">2024-01-14T20:23:18Z</DateUtc></StartTime><FrequencyChanges><FrequencyChange><Frequency dt:dt=""r8"">10000000</Frequency><Timestamp dt:dt=""r8"">4832374065308</Timestamp><Current dt:dt=""r8"">0</Current><DateUtc dt:dt=""string"">2024-01-14T20:23:18Z</DateUtc></FrequencyChange></FrequencyChanges></Clock>\n",2.0.10.252,2.0.10.356,2.0.10.356,Professional,1.0.0.1
Init4,,List12,,,5984,3,0,,600,3,200,,,,,,,,,,,,,,,,,,,,,,,1,1,1,,,,,,,,,,,,,,,,,,,,,,DelayDiscountingTitrated Backup1,01-14-2024,15:23:18,1/14/2024 8:23:18 PM,2011,1,15,DelayDiscountingTitrated Backup1-2011-1,537854484,1,60.017,"<?xml version=""1.0""?>\n<Clock xmlns:dt=""urn:schemas-microsoft-com:datatypes""><Description dt:dt=""string"">E-Prime Primary Realtime Clock</Description><StartTime><Timestamp dt:dt=""int"">0</Timestamp><DateUtc dt:dt=""string"">2024-01-14T20:23:18Z</DateUtc></StartTime><FrequencyChanges><FrequencyChange><Frequency dt:dt=""r8"">10000000</Frequency><Timestamp dt:dt=""r8"">4832374065308</Timestamp><Current dt:dt=""r8"">0</Current><DateUtc dt:dt=""string"">2024-01-14T20:23:18Z</DateUtc></FrequencyChange></FrequencyChanges></Clock>\n",2.0.10.252,2.0.10.356,2.0.10.356,Professional,1.0.0.1
Proc4,,List12,,,,,,,800,3,600,600,2641,3,0,,200,,,,,,,,,,,,,,,,,2,1,2,,,,,,,,,,,,,,,,,,,,,,DelayDiscountingTitrated Backup1,01-14-2024,15:23:18,1/14/2024 8:23:18 PM,2011,1,15,DelayDiscountingTitrated Backup1-2011-1,537854484,1,60.017,"<?xml version=""1.0""?>\n<Clock xmlns:dt=""urn:schemas-microsoft-com:datatypes""><Description dt:dt=""string"">E-Prime Primary Realtime Clock</Description><StartTime><Timestamp dt:dt=""int"">0</Timestamp><DateUtc dt:dt=""string"">2024-01-14T20:23:18Z</DateUtc></StartTime><FrequencyChanges><FrequencyChange><Frequency dt:dt=""r8"">10000000</Frequency><Timestamp dt:dt=""r8"">4832374065308</Timestamp><Current dt:dt=""r8"">0</Current><DateUtc dt:dt=""string"">2024-01-14T20:23:18Z</DateUtc></FrequencyChange></FrequencyChanges></Clock>\n",2.0.10.252,2.0.10.356,2.0.10.356,Professional,1.0.0.1
Proc4,,List12,,,,,,,700,1,800,800,1223,1,0,,100,,,,,,,,,,,,,,,,,3,1,3,,,,,,,,,,,,,,,,,,,,,,DelayDiscountingTitrated Backup1,01-14-2024,15:23:18,1/14/2024 8:23:18 PM,2011,1,15,DelayDiscountingTitrated Backup1-2011-1,537854484,1,60.017,"<?xml version=""1.0""?>\n<Clock xmlns:dt=""urn:schemas-microsoft-com:datatypes""><Description dt:dt=""string"">E-Prime Primary Realtime Clock</Description><StartTime><Timestamp dt:dt=""int"">0</Timestamp><DateUtc dt:dt=""string"">2024-01-14T20:23:18Z</DateUtc></StartTime><FrequencyChanges><FrequencyChange><Frequency dt:dt=""r8"">10000000</Frequency><Timestamp dt:dt=""r8"">4832374065308</Timestamp><Current dt:dt=""r8"">0</Current><DateUtc dt:dt=""string"">2024-01-14T20:23:18Z</DateUtc></FrequencyChange></FrequencyChanges></Clock>\n",2.0.10.252,2.0.10.356,2.0.10.356,Professional,1.0.0.1
Proc4,,List12,,,,,,,650,1,700,700,3733,1,0,,50,,,,,,,,,,,,,,,,,4,1,4,,,,,,,,,,,,,,,,,,,,,,DelayDiscountingTitrated Backup1,01-14-2024,15:23:18,1/14/2024 8:23:18 PM,2011,1,15,DelayDiscountingTitrated Backup1-2011-1,537854484,1,60.017,"<?xml version=""1.0""?>\n<Clock xmlns:dt=""urn:schemas-microsoft-com:datatypes""><Description dt:dt=""string"">E-Prime Primary Realtime Clock</Description><StartTime><Timestamp dt:dt=""int"">0</Timestamp><DateUtc dt:dt=""string"">2024-01-14T20:23:18Z</DateUtc></StartTime><FrequencyChanges><FrequencyChange><Frequency dt:dt=""r8"">10000000</Frequency><Timestamp dt:dt=""r8"">4832374065308</Timestamp><Current dt:dt=""r8"">0</Current><DateUtc dt:dt=""string"">2024-01-14T20:23:18Z</DateUtc></FrequencyChange></FrequencyChanges></Clock>\n",2.0.10.252,2.0.10.356,2.0.10.356,Professional,1.0.0.1
Proc4,,List12,,,,,,,675,3,650,650,1351,3,0,,25,,,,,,,,,,,,,,,,,5,1,5,,,,,,,,,,,,,,,,,,,,,,DelayDiscountingTitrated Backup1,01-14-2024,15:23:18,1/14/2024 8:23:18 PM,2011,1,15,DelayDiscountingTitrated Backup1-2011-1,537854484,1,60.017,"<?xml version=""1.0""?>\n<Clock xmlns:dt=""urn:schemas-microsoft-com:datatypes""><Description dt:dt=""string"">E-Prime Primary Realtime Clock</Description><StartTime><Timestamp dt:dt=""int"">0</Timestamp><DateUtc dt:dt=""string"">2024-01-14T20:23:18Z</DateUtc></StartTime><FrequencyChanges><FrequencyChange><Frequency dt:dt=""r8"">10000000</Frequency><Timestamp dt:dt=""r8"">4832374065308</Timestamp><Current dt:dt=""r8"">0</Current><DateUtc dt:dt=""string"">2024-01-14T20:23:18Z</DateUtc></FrequencyChange></FrequencyChanges></Clock>\n",2.0.10.252,2.0.10.356,2.0.10.356,Professional,1.0.0.1
Proc4,,List12,,,,,,,687,3,675,675,1096,3,0,,12,,,,,,,,,,,,,,,,,6,1,6,,,,,,,,,,,,,,,,,,,,,,DelayDiscountingTitrated Backup1,01-14-2024,15:23:18,1/14/2024 8:23:18 PM,2011,1,15,DelayDiscountingTitrated Backup1-2011-1,537854484,1,60.017,"<?xml version=""1.0""?>\n<Clock xmlns:dt=""urn:schemas-microsoft-com:datatypes""><Description dt:dt=""string"">E-Prime Primary Realtime Clock</Description><StartTime><Timestamp dt:dt=""int"">0</Timestamp><DateUtc dt:dt=""string"">2024-01-14T20:23:18Z</DateUtc></StartTime><FrequencyChanges><FrequencyChange><Frequency dt:dt=""r8"">10000000</Frequency><Timestamp dt:dt=""r8"">4832374065308</Timestamp><Current dt:dt=""r8"">0</Current><DateUtc dt:dt=""string"">2024-01-14T20:23:18Z</DateUtc></FrequencyChange></FrequencyChanges></Clock>\n",2.0.10.252,2.0.10.356,2.0.10.356,Professional,1.0.0.1
Proc4,,List12,,,,,,,681,1,687,687,1746,1,0,,6,,,,,,,,,,,,,,,,,7,1,7,,,,,,,,,,,,,,,,,,,,,,DelayDiscountingTitrated Backup1,01-14-2024,15:23:18,1/14/2024 8:23:18 PM,2011,1,15,DelayDiscountingTitrated Backup1-2011-1,537854484,1,60.017,"<?xml version=""1.0""?>\n<Clock xmlns:dt=""urn:schemas-microsoft-com:datatypes""><Description dt:dt=""string"">E-Prime Primary Realtime Clock</Description><StartTime><Timestamp dt:dt=""int"">0</Timestamp><DateUtc dt:dt=""string"">2024-01-14T20:23:18Z</DateUtc></StartTime><FrequencyChanges><FrequencyChange><Frequency dt:dt=""r8"">10000000</Frequency><Timestamp dt:dt=""r8"">4832374065308</Timestamp><Current dt:dt=""r8"">0</Current><DateUtc dt:dt=""string"">2024-01-14T20:23:18Z</DateUtc></FrequencyChange></FrequencyChanges></Clock>\n",2.0.10.252,2.0.10.356,2.0.10.356,Professional,1.0.0.1
Proc4,,List12,,,,,,,678,1,681,681,827,1,0,,3,,,,,,,,,,,,,,,,,8,1,8,,,,,,,,,,,,,,,,,,,,,,DelayDiscountingTitrated Backup1,01-14-2024,15:23:18,1/14/2024 8:23:18 PM,2011,1,15,DelayDiscountingTitrated Backup1-2011-1,537854484,1,60.017,"<?xml version=""1.0""?>\n<Clock xmlns:dt=""urn:schemas-microsoft-com:datatypes""><Description dt:dt=""string"">E-Prime Primary Realtime Clock</Description><StartTime><Timestamp dt:dt=""int"">0</Timestamp><DateUtc dt:dt=""string"">2024-01-14T20:23:18Z</DateUtc></StartTime><FrequencyChanges><FrequencyChange><Frequency dt:dt=""r8"">10000000</Frequency><Timestamp dt:dt=""r8"">4832374065308</Timestamp><Current dt:dt=""r8"">0</Current><DateUtc dt:dt=""string"">2024-01-14T20:23:18Z</DateUtc></FrequencyChange></FrequencyChanges></Clock>\n",2.0.10.252,2.0.10.356,2.0.10.356,Professional,1.0.0.1
Proc4,,List12,,,,,,,680,3,678,678,2728,3,0,,2,,,,,,,,,,,,,,,,,9,1,9,,,,,,,,,,,,,,,,,,,,,,DelayDiscountingTitrated Backup1,01-14-2024,15:23:18,1/14/2024 8:23:18 PM,2011,1,15,DelayDiscountingTitrated Backup1-2011-1,537854484,1,60.017,"<?xml version=""1.0""?>\n<Clock xmlns:dt=""urn:schemas-microsoft-com:datatypes""><Description dt:dt=""string"">E-Prime Primary Realtime Clock</Description><StartTime><Timestamp dt:dt=""int"">0</Timestamp><DateUtc dt:dt=""string"">2024-01-14T20:23:18Z</DateUtc></StartTime><FrequencyChanges><FrequencyChange><Frequency dt:dt=""r8"">10000000</Frequency><Timestamp dt:dt=""r8"">4832374065308</Timestamp><Current dt:dt=""r8"">0</Current><DateUtc dt:dt=""string"">2024-01-14T20:23:18Z</DateUtc></FrequencyChange></FrequencyChanges></Clock>\n",2.0.10.252,2.0.10.356,2.0.10.356,Professional,1.0.0.1
Proc4,,List12,,,,,,,679,1,680,680,1786,1,0,,1,,,,,,,,,,,,,,,,,10,1,10,,,,,,,,,,,,,,,,,,,,,,DelayDiscountingTitrated Backup1,01-14-2024,15:23:18,1/14/2024 8:23:18 PM,2011,1,15,DelayDiscountingTitrated Backup1-2011-1,537854484,1,60.017,"<?xml version=""1.0""?>\n<Clock xmlns:dt=""urn:schemas-microsoft-com:datatypes""><Description dt:dt=""string"">E-Prime Primary Realtime Clock</Description><StartTime><Timestamp dt:dt=""int"">0</Timestamp><DateUtc dt:dt=""string"">2024-01-14T20:23:18Z</DateUtc></StartTime><FrequencyChanges><FrequencyChange><Frequency dt:dt=""r8"">10000000</Frequency><Timestamp dt:dt=""r8"">4832374065308</Timestamp><Current dt:dt=""r8"">0</Current><DateUtc dt:dt=""string"">2024-01-14T20:23:18Z</DateUtc></FrequencyChange></FrequencyChanges></Clock>\n",2.0.10.252,2.0.10.356,2.0.10.356,Professional,1.0.0.1
Proc4,,List12,,,,,,,679,1,680,679,1082,1,0,,,,,,,,,,,,,,,,,,,11,1,11,,,,,,,,,,,,,,,,,,,,,,DelayDiscountingTitrated Backup1,01-14-2024,15:23:18,1/14/2024 8:23:18 PM,2011,1,15,DelayDiscountingTitrated Backup1-2011-1,537854484,1,60.017,"<?xml version=""1.0""?>\n<Clock xmlns:dt=""urn:schemas-microsoft-com:datatypes""><Description dt:dt=""string"">E-Prime Primary Realtime Clock</Description><StartTime><Timestamp dt:dt=""int"">0</Timestamp><DateUtc dt:dt=""string"">2024-01-14T20:23:18Z</DateUtc></StartTime><FrequencyChanges><FrequencyChange><Frequency dt:dt=""r8"">10000000</Frequency><Timestamp dt:dt=""r8"">4832374065308</Timestamp><Current dt:dt=""r8"">0</Current><DateUtc dt:dt=""string"">2024-01-14T20:23:18Z</DateUtc></FrequencyChange></FrequencyChanges></Clock>\n",2.0.10.252,2.0.10.356,2.0.10.356,Professional,1.0.0.1
discount4,,List7,,,,,,,,,,,,,,,,200,5 years,1825,,,,,,,,,,,,,,,,,1,1,1,,,,,,,,,,,,,,,,,,,DelayDiscountingTitrated Backup1,01-14-2024,15:23:18,1/14/2024 8:23:18 PM,2011,1,15,DelayDiscountingTitrated Backup1-2011-1,537854484,1,60.017,"<?xml version=""1.0""?>\n<Clock xmlns:dt=""urn:schemas-microsoft-com:datatypes""><Description dt:dt=""string"">E-Prime Primary Realtime Clock</Description><StartTime><Timestamp dt:dt=""int"">0</Timestamp><DateUtc dt:dt=""string"">2024-01-14T20:23:18Z</DateUtc></StartTime><FrequencyChanges><FrequencyChange><Frequency dt:dt=""r8"">10000000</Frequency><Timestamp dt:dt=""r8"">4832374065308</Timestamp><Current dt:dt=""r8"">0</Current><DateUtc dt:dt=""string"">2024-01-14T20:23:18Z</DateUtc></FrequencyChange></FrequencyChanges></Clock>\n",2.0.10.252,2.0.10.356,2.0.10.356,Professional,1.0.0.1
fiveyearproc,,List1,,,,,,,,,,,,,,,,,,,,,,5,1,3,3,,,,,,,,,,,,,,,,,,,,,,,,,,,,,,,DelayDiscountingTitrated Backup1,01-14-2024,15:23:18,1/14/2024 8:23:18 PM,2011,1,15,DelayDiscountingTitrated Backup1-2011-1,537854484,1,60.017,"<?xml version=""1.0""?>\n<Clock xmlns:dt=""urn:schemas-microsoft-com:datatypes""><Description dt:dt=""string"">E-Prime Primary Realtime Clock</Description><StartTime><Timestamp dt:dt=""int"">0</Timestamp><DateUtc dt:dt=""string"">2024-01-14T20:23:18Z</DateUtc></StartTime><FrequencyChanges><FrequencyChange><Frequency dt:dt=""r8"">10000000</Frequency><Timestamp dt:dt=""r8"">4832374065308</Timestamp><Current dt:dt=""r8"">0</Current><DateUtc dt:dt=""string"">2024-01-14T20:23:18Z</DateUtc></FrequencyChange></FrequencyChanges></Clock>\n",2.0.10.252,2.0.10.356,2.0.10.356,Professional,1.0.0.1
Init5,,List13,,,3020,3,0,,750,3,500,,,,,,,,,,,,,,,,,,,,,,,,,,,,,1,1,1,,,,,,,,,,,,,,,,DelayDiscountingTitrated Backup1,01-14-2024,15:23:18,1/14/2024 8:23:18 PM,2011,1,15,DelayDiscountingTitrated Backup1-2011-1,537854484,1,60.017,"<?xml version=""1.0""?>\n<Clock xmlns:dt=""urn:schemas-microsoft-com:datatypes""><Description dt:dt=""string"">E-Prime Primary Realtime Clock</Description><StartTime><Timestamp dt:dt=""int"">0</Timestamp><DateUtc dt:dt=""string"">2024-01-14T20:23:18Z</DateUtc></StartTime><FrequencyChanges><FrequencyChange><Frequency dt:dt=""r8"">10000000</Frequency><Timestamp dt:dt=""r8"">4832374065308</Timestamp><Current dt:dt=""r8"">0</Current><DateUtc dt:dt=""string"">2024-01-14T20:23:18Z</DateUtc></FrequencyChange></FrequencyChanges></Clock>\n",2.0.10.252,2.0.10.356,2.0.10.356,Professional,1.0.0.1
Proc5,,List13,,,,,,,625,1,750,750,1443,1,0,,125,,,,,,,,,,,,,,,,,,,,,,,2,1,2,,,,,,,,,,,,,,,,DelayDiscountingTitrated Backup1,01-14-2024,15:23:18,1/14/2024 8:23:18 PM,2011,1,15,DelayDiscountingTitrated Backup1-2011-1,537854484,1,60.017,"<?xml version=""1.0""?>\n<Clock xmlns:dt=""urn:schemas-microsoft-com:datatypes""><Description dt:dt=""string"">E-Prime Primary Realtime Clock</Description><StartTime><Timestamp dt:dt=""int"">0</Timestamp><DateUtc dt:dt=""string"">2024-01-14T20:23:18Z</DateUtc></StartTime><FrequencyChanges><FrequencyChange><Frequency dt:dt=""r8"">10000000</Frequency><Timestamp dt:dt=""r8"">4832374065308</Timestamp><Current dt:dt=""r8"">0</Current><DateUtc dt:dt=""string"">2024-01-14T20:23:18Z</DateUtc></FrequencyChange></FrequencyChanges></Clock>\n",2.0.10.252,2.0.10.356,2.0.10.356,Professional,1.0.0.1
Proc5,,List13,,,,,,,687,3,625,625,1832,3,0,,62,,,,,,,,,,,,,,,,,,,,,,,3,1,3,,,,,,,,,,,,,,,,DelayDiscountingTitrated Backup1,01-14-2024,15:23:18,1/14/2024 8:23:18 PM,2011,1,15,DelayDiscountingTitrated Backup1-2011-1,537854484,1,60.017,"<?xml version=""1.0""?>\n<Clock xmlns:dt=""urn:schemas-microsoft-com:datatypes""><Description dt:dt=""string"">E-Prime Primary Realtime Clock</Description><StartTime><Timestamp dt:dt=""int"">0</Timestamp><DateUtc dt:dt=""string"">2024-01-14T20:23:18Z</DateUtc></StartTime><FrequencyChanges><FrequencyChange><Frequency dt:dt=""r8"">10000000</Frequency><Timestamp dt:dt=""r8"">4832374065308</Timestamp><Current dt:dt=""r8"">0</Current><DateUtc dt:dt=""string"">2024-01-14T20:23:18Z</DateUtc></FrequencyChange></FrequencyChanges></Clock>\n",2.0.10.252,2.0.10.356,2.0.10.356,Professional,1.0.0.1
Proc5,,List13,,,,,,,718,3,687,687,1006,3,0,,31,,,,,,,,,,,,,,,,,,,,,,,4,1,4,,,,,,,,,,,,,,,,DelayDiscountingTitrated Backup1,01-14-2024,15:23:18,1/14/2024 8:23:18 PM,2011,1,15,DelayDiscountingTitrated Backup1-2011-1,537854484,1,60.017,"<?xml version=""1.0""?>\n<Clock xmlns:dt=""urn:schemas-microsoft-com:datatypes""><Description dt:dt=""string"">E-Prime Primary Realtime Clock</Description><StartTime><Timestamp dt:dt=""int"">0</Timestamp><DateUtc dt:dt=""string"">2024-01-14T20:23:18Z</DateUtc></StartTime><FrequencyChanges><FrequencyChange><Frequency dt:dt=""r8"">10000000</Frequency><Timestamp dt:dt=""r8"">4832374065308</Timestamp><Current dt:dt=""r8"">0</Current><DateUtc dt:dt=""string"">2024-01-14T20:23:18Z</DateUtc></FrequencyChange></FrequencyChanges></Clock>\n",2.0.10.252,2.0.10.356,2.0.10.356,Professional,1.0.0.1
Proc5,,List13,,,,,,,702,1,718,718,1284,1,0,,16,,,,,,,,,,,,,,,,,,,,,,,5,1,5,,,,,,,,,,,,,,,,DelayDiscountingTitrated Backup1,01-14-2024,15:23:18,1/14/2024 8:23:18 PM,2011,1,15,DelayDiscountingTitrated Backup1-2011-1,537854484,1,60.017,"<?xml version=""1.0""?>\n<Clock xmlns:dt=""urn:schemas-microsoft-com:datatypes""><Description dt:dt=""string"">E-Prime Primary Realtime Clock</Description><StartTime><Timestamp dt:dt=""int"">0</Timestamp><DateUtc dt:dt=""string"">2024-01-14T20:23:18Z</DateUtc></StartTime><FrequencyChanges><FrequencyChange><Frequency dt:dt=""r8"">10000000</Frequency><Timestamp dt:dt=""r8"">4832374065308</Timestamp><Current dt:dt=""r8"">0</Current><DateUtc dt:dt=""string"">2024-01-14T20:23:18Z</DateUtc></FrequencyChange></FrequencyChanges></Clock>\n",2.0.10.252,2.0.10.356,2.0.10.356,Professional,1.0.0.1
Proc5,,List13,,,,,,,694,1,702,702,1480,1,0,,8,,,,,,,,,,,,,,,,,,,,,,,6,1,6,,,,,,,,,,,,,,,,DelayDiscountingTitrated Backup1,01-14-2024,15:23:18,1/14/2024 8:23:18 PM,2011,1,15,DelayDiscountingTitrated Backup1-2011-1,537854484,1,60.017,"<?xml version=""1.0""?>\n<Clock xmlns:dt=""urn:schemas-microsoft-com:datatypes""><Description dt:dt=""string"">E-Prime Primary Realtime Clock</Description><StartTime><Timestamp dt:dt=""int"">0</Timestamp><DateUtc dt:dt=""string"">2024-01-14T20:23:18Z</DateUtc></StartTime><FrequencyChanges><FrequencyChange><Frequency dt:dt=""r8"">10000000</Frequency><Timestamp dt:dt=""r8"">4832374065308</Timestamp><Current dt:dt=""r8"">0</Current><DateUtc dt:dt=""string"">2024-01-14T20:23:18Z</DateUtc></FrequencyChange></FrequencyChanges></Clock>\n",2.0.10.252,2.0.10.356,2.0.10.356,Professional,1.0.0.1
Proc5,,List13,,,,,,,690,1,694,694,1395,1,0,,4,,,,,,,,,,,,,,,,,,,,,,,7,1,7,,,,,,,,,,,,,,,,DelayDiscountingTitrated Backup1,01-14-2024,15:23:18,1/14/2024 8:23:18 PM,2011,1,15,DelayDiscountingTitrated Backup1-2011-1,537854484,1,60.017,"<?xml version=""1.0""?>\n<Clock xmlns:dt=""urn:schemas-microsoft-com:datatypes""><Description dt:dt=""string"">E-Prime Primary Realtime Clock</Description><StartTime><Timestamp dt:dt=""int"">0</Timestamp><DateUtc dt:dt=""string"">2024-01-14T20:23:18Z</DateUtc></StartTime><FrequencyChanges><FrequencyChange><Frequency dt:dt=""r8"">10000000</Frequency><Timestamp dt:dt=""r8"">4832374065308</Timestamp><Current dt:dt=""r8"">0</Current><DateUtc dt:dt=""string"">2024-01-14T20:23:18Z</DateUtc></FrequencyChange></FrequencyChanges></Clock>\n",2.0.10.252,2.0.10.356,2.0.10.356,Professional,1.0.0.1
Proc5,,List13,,,,,,,688,1,690,690,874,1,0,,2,,,,,,,,,,,,,,,,,,,,,,,8,1,8,,,,,,,,,,,,,,,,DelayDiscountingTitrated Backup1,01-14-2024,15:23:18,1/14/2024 8:23:18 PM,2011,1,15,DelayDiscountingTitrated Backup1-2011-1,537854484,1,60.017,"<?xml version=""1.0""?>\n<Clock xmlns:dt=""urn:schemas-microsoft-com:datatypes""><Description dt:dt=""string"">E-Prime Primary Realtime Clock</Description><StartTime><Timestamp dt:dt=""int"">0</Timestamp><DateUtc dt:dt=""string"">2024-01-14T20:23:18Z</DateUtc></StartTime><FrequencyChanges><FrequencyChange><Frequency dt:dt=""r8"">10000000</Frequency><Timestamp dt:dt=""r8"">4832374065308</Timestamp><Current dt:dt=""r8"">0</Current><DateUtc dt:dt=""string"">2024-01-14T20:23:18Z</DateUtc></FrequencyChange></FrequencyChanges></Clock>\n",2.0.10.252,2.0.10.356,2.0.10.356,Professional,1.0.0.1
Proc5,,List13,,,,,,,687,1,688,688,974,1,0,,1,,,,,,,,,,,,,,,,,,,,,,,9,1,9,,,,,,,,,,,,,,,,DelayDiscountingTitrated Backup1,01-14-2024,15:23:18,1/14/2024 8:23:18 PM,2011,1,15,DelayDiscountingTitrated Backup1-2011-1,537854484,1,60.017,"<?xml version=""1.0""?>\n<Clock xmlns:dt=""urn:schemas-microsoft-com:datatypes""><Description dt:dt=""string"">E-Prime Primary Realtime Clock</Description><StartTime><Timestamp dt:dt=""int"">0</Timestamp><DateUtc dt:dt=""string"">2024-01-14T20:23:18Z</DateUtc></StartTime><FrequencyChanges><FrequencyChange><Frequency dt:dt=""r8"">10000000</Frequency><Timestamp dt:dt=""r8"">4832374065308</Timestamp><Current dt:dt=""r8"">0</Current><DateUtc dt:dt=""string"">2024-01-14T20:23:18Z</DateUtc></FrequencyChange></FrequencyChanges></Clock>\n",2.0.10.252,2.0.10.356,2.0.10.356,Professional,1.0.0.1
Proc5,,List13,,,,,,,687,3,688,687,1750,3,0,,,,,,,,,,,,,,,,,,,,,,,,,10,1,10,,,,,,,,,,,,,,,,DelayDiscountingTitrated Backup1,01-14-2024,15:23:18,1/14/2024 8:23:18 PM,2011,1,15,DelayDiscountingTitrated Backup1-2011-1,537854484,1,60.017,"<?xml version=""1.0""?>\n<Clock xmlns:dt=""urn:schemas-microsoft-com:datatypes""><Description dt:dt=""string"">E-Prime Primary Realtime Clock</Description><StartTime><Timestamp dt:dt=""int"">0</Timestamp><DateUtc dt:dt=""string"">2024-01-14T20:23:18Z</DateUtc></StartTime><FrequencyChanges><FrequencyChange><Frequency dt:dt=""r8"">10000000</Frequency><Timestamp dt:dt=""r8"">4832374065308</Timestamp><Current dt:dt=""r8"">0</Current><DateUtc dt:dt=""string"">2024-01-14T20:23:18Z</DateUtc></FrequencyChange></FrequencyChanges></Clock>\n",2.0.10.252,2.0.10.356,2.0.10.356,Professional,1.0.0.1
discount5,,List8,,,,,,,,,,,,,,,,500,15 years,5475,,,,,,,,,,,,,,,,,,,,,,,2,2,1,,,,,,,,,,,,,DelayDiscountingTitrated Backup1,01-14-2024,15:23:18,1/14/2024 8:23:18 PM,2011,1,15,DelayDiscountingTitrated Backup1-2011-1,537854484,1,60.017,"<?xml version=""1.0""?>\n<Clock xmlns:dt=""urn:schemas-microsoft-com:datatypes""><Description dt:dt=""string"">E-Prime Primary Realtime Clock</Description><StartTime><Timestamp dt:dt=""int"">0</Timestamp><DateUtc dt:dt=""string"">2024-01-14T20:23:18Z</DateUtc></StartTime><FrequencyChanges><FrequencyChange><Frequency dt:dt=""r8"">10000000</Frequency><Timestamp dt:dt=""r8"">4832374065308</Timestamp><Current dt:dt=""r8"">0</Current><DateUtc dt:dt=""string"">2024-01-14T20:23:18Z</DateUtc></FrequencyChange></FrequencyChanges></Clock>\n",2.0.10.252,2.0.10.356,2.0.10.356,Professional,1.0.0.1
fifteenyearproc,,List1,,,,,,,,,,,,,,,,,,,,,,6,1,4,4,,,,,,,,,,,,,,,,,,,,,,,,,,,,,,,DelayDiscountingTitrated Backup1,01-14-2024,15:23:18,1/14/2024 8:23:18 PM,2011,1,15,DelayDiscountingTitrated Backup1-2011-1,537854484,1,60.017,"<?xml version=""1.0""?>\n<Clock xmlns:dt=""urn:schemas-microsoft-com:datatypes""><Description dt:dt=""string"">E-Prime Primary Realtime Clock</Description><StartTime><Timestamp dt:dt=""int"">0</Timestamp><DateUtc dt:dt=""string"">2024-01-14T20:23:18Z</DateUtc></StartTime><FrequencyChanges><FrequencyChange><Frequency dt:dt=""r8"">10000000</Frequency><Timestamp dt:dt=""r8"">4832374065308</Timestamp><Current dt:dt=""r8"">0</Current><DateUtc dt:dt=""string"">2024-01-14T20:23:18Z</DateUtc></FrequencyChange></FrequencyChanges></Clock>\n",2.0.10.252,2.0.10.356,2.0.10.356,Professional,1.0.0.1
Init3,,List11,,,3334,1,0,,400,1,800,,,,,,,,,,,,,,,,,,,,,,,,,,,,,,,,,,,1,1,1,,,,,,,,,,DelayDiscountingTitrated Backup1,01-14-2024,15:23:18,1/14/2024 8:23:18 PM,2011,1,15,DelayDiscountingTitrated Backup1-2011-1,537854484,1,60.017,"<?xml version=""1.0""?>\n<Clock xmlns:dt=""urn:schemas-microsoft-com:datatypes""><Description dt:dt=""string"">E-Prime Primary Realtime Clock</Description><StartTime><Timestamp dt:dt=""int"">0</Timestamp><DateUtc dt:dt=""string"">2024-01-14T20:23:18Z</DateUtc></StartTime><FrequencyChanges><FrequencyChange><Frequency dt:dt=""r8"">10000000</Frequency><Timestamp dt:dt=""r8"">4832374065308</Timestamp><Current dt:dt=""r8"">0</Current><DateUtc dt:dt=""string"">2024-01-14T20:23:18Z</DateUtc></FrequencyChange></FrequencyChanges></Clock>\n",2.0.10.252,2.0.10.356,2.0.10.356,Professional,1.0.0.1
Proc3,,List11,,,,,,,600,3,400,400,1088,3,0,,200,,,,,,,,,,,,,,,,,,,,,,,,,,,,,2,1,2,,,,,,,,,,DelayDiscountingTitrated Backup1,01-14-2024,15:23:18,1/14/2024 8:23:18 PM,2011,1,15,DelayDiscountingTitrated Backup1-2011-1,537854484,1,60.017,"<?xml version=""1.0""?>\n<Clock xmlns:dt=""urn:schemas-microsoft-com:datatypes""><Description dt:dt=""string"">E-Prime Primary Realtime Clock</Description><StartTime><Timestamp dt:dt=""int"">0</Timestamp><DateUtc dt:dt=""string"">2024-01-14T20:23:18Z</DateUtc></StartTime><FrequencyChanges><FrequencyChange><Frequency dt:dt=""r8"">10000000</Frequency><Timestamp dt:dt=""r8"">4832374065308</Timestamp><Current dt:dt=""r8"">0</Current><DateUtc dt:dt=""string"">2024-01-14T20:23:18Z</DateUtc></FrequencyChange></FrequencyChanges></Clock>\n",2.0.10.252,2.0.10.356,2.0.10.356,Professional,1.0.0.1
Proc3,,List11,,,,,,,700,3,600,600,1035,3,0,,100,,,,,,,,,,,,,,,,,,,,,,,,,,,,,3,1,3,,,,,,,,,,DelayDiscountingTitrated Backup1,01-14-2024,15:23:18,1/14/2024 8:23:18 PM,2011,1,15,DelayDiscountingTitrated Backup1-2011-1,537854484,1,60.017,"<?xml version=""1.0""?>\n<Clock xmlns:dt=""urn:schemas-microsoft-com:datatypes""><Description dt:dt=""string"">E-Prime Primary Realtime Clock</Description><StartTime><Timestamp dt:dt=""int"">0</Timestamp><DateUtc dt:dt=""string"">2024-01-14T20:23:18Z</DateUtc></StartTime><FrequencyChanges><FrequencyChange><Frequency dt:dt=""r8"">10000000</Frequency><Timestamp dt:dt=""r8"">4832374065308</Timestamp><Current dt:dt=""r8"">0</Current><DateUtc dt:dt=""string"">2024-01-14T20:23:18Z</DateUtc></FrequencyChange></FrequencyChanges></Clock>\n",2.0.10.252,2.0.10.356,2.0.10.356,Professional,1.0.0.1
Proc3,,List11,,,,,,,650,1,700,700,1161,1,0,,50,,,,,,,,,,,,,,,,,,,,,,,,,,,,,4,1,4,,,,,,,,,,DelayDiscountingTitrated Backup1,01-14-2024,15:23:18,1/14/2024 8:23:18 PM,2011,1,15,DelayDiscountingTitrated Backup1-2011-1,537854484,1,60.017,"<?xml version=""1.0""?>\n<Clock xmlns:dt=""urn:schemas-microsoft-com:datatypes""><Description dt:dt=""string"">E-Prime Primary Realtime Clock</Description><StartTime><Timestamp dt:dt=""int"">0</Timestamp><DateUtc dt:dt=""string"">2024-01-14T20:23:18Z</DateUtc></StartTime><FrequencyChanges><FrequencyChange><Frequency dt:dt=""r8"">10000000</Frequency><Timestamp dt:dt=""r8"">4832374065308</Timestamp><Current dt:dt=""r8"">0</Current><DateUtc dt:dt=""string"">2024-01-14T20:23:18Z</DateUtc></FrequencyChange></FrequencyChanges></Clock>\n",2.0.10.252,2.0.10.356,2.0.10.356,Professional,1.0.0.1
Proc3,,List11,,,,,,,675,3,650,650,1225,3,0,,25,,,,,,,,,,,,,,,,,,,,,,,,,,,,,5,1,5,,,,,,,,,,DelayDiscountingTitrated Backup1,01-14-2024,15:23:18,1/14/2024 8:23:18 PM,2011,1,15,DelayDiscountingTitrated Backup1-2011-1,537854484,1,60.017,"<?xml version=""1.0""?>\n<Clock xmlns:dt=""urn:schemas-microsoft-com:datatypes""><Description dt:dt=""string"">E-Prime Primary Realtime Clock</Description><StartTime><Timestamp dt:dt=""int"">0</Timestamp><DateUtc dt:dt=""string"">2024-01-14T20:23:18Z</DateUtc></StartTime><FrequencyChanges><FrequencyChange><Frequency dt:dt=""r8"">10000000</Frequency><Timestamp dt:dt=""r8"">4832374065308</Timestamp><Current dt:dt=""r8"">0</Current><DateUtc dt:dt=""string"">2024-01-14T20:23:18Z</DateUtc></FrequencyChange></FrequencyChanges></Clock>\n",2.0.10.252,2.0.10.356,2.0.10.356,Professional,1.0.0.1
Proc3,,List11,,,,,,,663,1,675,675,1511,1,0,,12,,,,,,,,,,,,,,,,,,,,,,,,,,,,,6,1,6,,,,,,,,,,DelayDiscountingTitrated Backup1,01-14-2024,15:23:18,1/14/2024 8:23:18 PM,2011,1,15,DelayDiscountingTitrated Backup1-2011-1,537854484,1,60.017,"<?xml version=""1.0""?>\n<Clock xmlns:dt=""urn:schemas-microsoft-com:datatypes""><Description dt:dt=""string"">E-Prime Primary Realtime Clock</Description><StartTime><Timestamp dt:dt=""int"">0</Timestamp><DateUtc dt:dt=""string"">2024-01-14T20:23:18Z</DateUtc></StartTime><FrequencyChanges><FrequencyChange><Frequency dt:dt=""r8"">10000000</Frequency><Timestamp dt:dt=""r8"">4832374065308</Timestamp><Current dt:dt=""r8"">0</Current><DateUtc dt:dt=""string"">2024-01-14T20:23:18Z</DateUtc></FrequencyChange></FrequencyChanges></Clock>\n",2.0.10.252,2.0.10.356,2.0.10.356,Professional,1.0.0.1
Proc3,,List11,,,,,,,669,3,663,663,889,3,0,,6,,,,,,,,,,,,,,,,,,,,,,,,,,,,,7,1,7,,,,,,,,,,DelayDiscountingTitrated Backup1,01-14-2024,15:23:18,1/14/2024 8:23:18 PM,2011,1,15,DelayDiscountingTitrated Backup1-2011-1,537854484,1,60.017,"<?xml version=""1.0""?>\n<Clock xmlns:dt=""urn:schemas-microsoft-com:datatypes""><Description dt:dt=""string"">E-Prime Primary Realtime Clock</Description><StartTime><Timestamp dt:dt=""int"">0</Timestamp><DateUtc dt:dt=""string"">2024-01-14T20:23:18Z</DateUtc></StartTime><FrequencyChanges><FrequencyChange><Frequency dt:dt=""r8"">10000000</Frequency><Timestamp dt:dt=""r8"">4832374065308</Timestamp><Current dt:dt=""r8"">0</Current><DateUtc dt:dt=""string"">2024-01-14T20:23:18Z</DateUtc></FrequencyChange></FrequencyChanges></Clock>\n",2.0.10.252,2.0.10.356,2.0.10.356,Professional,1.0.0.1
Proc3,,List11,,,,,,,672,3,669,669,1460,3,0,,3,,,,,,,,,,,,,,,,,,,,,,,,,,,,,8,1,8,,,,,,,,,,DelayDiscountingTitrated Backup1,01-14-2024,15:23:18,1/14/2024 8:23:18 PM,2011,1,15,DelayDiscountingTitrated Backup1-2011-1,537854484,1,60.017,"<?xml version=""1.0""?>\n<Clock xmlns:dt=""urn:schemas-microsoft-com:datatypes""><Description dt:dt=""string"">E-Prime Primary Realtime Clock</Description><StartTime><Timestamp dt:dt=""int"">0</Timestamp><DateUtc dt:dt=""string"">2024-01-14T20:23:18Z</DateUtc></StartTime><FrequencyChanges><FrequencyChange><Frequency dt:dt=""r8"">10000000</Frequency><Timestamp dt:dt=""r8"">4832374065308</Timestamp><Current dt:dt=""r8"">0</Current><DateUtc dt:dt=""string"">2024-01-14T20:23:18Z</DateUtc></FrequencyChange></FrequencyChanges></Clock>\n",2.0.10.252,2.0.10.356,2.0.10.356,Professional,1.0.0.1
Proc3,,List11,,,,,,,674,3,672,672,1296,3,0,,2,,,,,,,,,,,,,,,,,,,,,,,,,,,,,9,1,9,,,,,,,,,,DelayDiscountingTitrated Backup1,01-14-2024,15:23:18,1/14/2024 8:23:18 PM,2011,1,15,DelayDiscountingTitrated Backup1-2011-1,537854484,1,60.017,"<?xml version=""1.0""?>\n<Clock xmlns:dt=""urn:schemas-microsoft-com:datatypes""><Description dt:dt=""string"">E-Prime Primary Realtime Clock</Description><StartTime><Timestamp dt:dt=""int"">0</Timestamp><DateUtc dt:dt=""string"">2024-01-14T20:23:18Z</DateUtc></StartTime><FrequencyChanges><FrequencyChange><Frequency dt:dt=""r8"">10000000</Frequency><Timestamp dt:dt=""r8"">4832374065308</Timestamp><Current dt:dt=""r8"">0</Current><DateUtc dt:dt=""string"">2024-01-14T20:23:18Z</DateUtc></FrequencyChange></FrequencyChanges></Clock>\n",2.0.10.252,2.0.10.356,2.0.10.356,Professional,1.0.0.1
Proc3,,List11,,,,,,,675,3,674,674,867,3,0,,1,,,,,,,,,,,,,,,,,,,,,,,,,,,,,10,1,10,,,,,,,,,,DelayDiscountingTitrated Backup1,01-14-2024,15:23:18,1/14/2024 8:23:18 PM,2011,1,15,DelayDiscountingTitrated Backup1-2011-1,537854484,1,60.017,"<?xml version=""1.0""?>\n<Clock xmlns:dt=""urn:schemas-microsoft-com:datatypes""><Description dt:dt=""string"">E-Prime Primary Realtime Clock</Description><StartTime><Timestamp dt:dt=""int"">0</Timestamp><DateUtc dt:dt=""string"">2024-01-14T20:23:18Z</DateUtc></StartTime><FrequencyChanges><FrequencyChange><Frequency dt:dt=""r8"">10000000</Frequency><Timestamp dt:dt=""r8"">4832374065308</Timestamp><Current dt:dt=""r8"">0</Current><DateUtc dt:dt=""string"">2024-01-14T20:23:18Z</DateUtc></FrequencyChange></FrequencyChanges></Clock>\n",2.0.10.252,2.0.10.356,2.0.10.356,Professional,1.0.0.1
Proc3,,List11,,,,,,,675,3,674,675,1695,3,0,,,,,,,,,,,,,,,,,,,,,,,,,,,,,,,11,1,11,,,,,,,,,,DelayDiscountingTitrated Backup1,01-14-2024,15:23:18,1/14/2024 8:23:18 PM,2011,1,15,DelayDiscountingTitrated Backup1-2011-1,537854484,1,60.017,"<?xml version=""1.0""?>\n<Clock xmlns:dt=""urn:schemas-microsoft-com:datatypes""><Description dt:dt=""string"">E-Prime Primary Realtime Clock</Description><StartTime><Timestamp dt:dt=""int"">0</Timestamp><DateUtc dt:dt=""string"">2024-01-14T20:23:18Z</DateUtc></StartTime><FrequencyChanges><FrequencyChange><Frequency dt:dt=""r8"">10000000</Frequency><Timestamp dt:dt=""r8"">4832374065308</Timestamp><Current dt:dt=""r8"">0</Current><DateUtc dt:dt=""string"">2024-01-14T20:23:18Z</DateUtc></FrequencyChange></FrequencyChanges></Clock>\n",2.0.10.252,2.0.10.356,2.0.10.356,Professional,1.0.0.1
discount3,,List6,,,,,,,,,,,,,,,,800,1 year,365,,,,,,,,,,,,,,,,,,,,,,,,,,,,,3,1,1,,,,,,,DelayDiscountingTitrated Backup1,01-14-2024,15:23:18,1/14/2024 8:23:18 PM,2011,1,15,DelayDiscountingTitrated Backup1-2011-1,537854484,1,60.017,"<?xml version=""1.0""?>\n<Clock xmlns:dt=""urn:schemas-microsoft-com:datatypes""><Description dt:dt=""string"">E-Prime Primary Realtime Clock</Description><StartTime><Timestamp dt:dt=""int"">0</Timestamp><DateUtc dt:dt=""string"">2024-01-14T20:23:18Z</DateUtc></StartTime><FrequencyChanges><FrequencyChange><Frequency dt:dt=""r8"">10000000</Frequency><Timestamp dt:dt=""r8"">4832374065308</Timestamp><Current dt:dt=""r8"">0</Current><DateUtc dt:dt=""string"">2024-01-14T20:23:18Z</DateUtc></FrequencyChange></FrequencyChanges></Clock>\n",2.0.10.252,2.0.10.356,2.0.10.356,Professional,1.0.0.1
oneyearproc,,List1,,,,,,,,,,,,,,,,,,,,,,4,1,5,5,,,,,,,,,,,,,,,,,,,,,,,,,,,,,,,DelayDiscountingTitrated Backup1,01-14-2024,15:23:18,1/14/2024 8:23:18 PM,2011,1,15,DelayDiscountingTitrated Backup1-2011-1,537854484,1,60.017,"<?xml version=""1.0""?>\n<Clock xmlns:dt=""urn:schemas-microsoft-com:datatypes""><Description dt:dt=""string"">E-Prime Primary Realtime Clock</Description><StartTime><Timestamp dt:dt=""int"">0</Timestamp><DateUtc dt:dt=""string"">2024-01-14T20:23:18Z</DateUtc></StartTime><FrequencyChanges><FrequencyChange><Frequency dt:dt=""r8"">10000000</Frequency><Timestamp dt:dt=""r8"">4832374065308</Timestamp><Current dt:dt=""r8"">0</Current><DateUtc dt:dt=""string"">2024-01-14T20:23:18Z</DateUtc></FrequencyChange></FrequencyChanges></Clock>\n",2.0.10.252,2.0.10.356,2.0.10.356,Professional,1.0.0.1
Init1,,List9,,,3743,1,0,,400,1,800,,,,,,,,,,,,,,,,,,,,,,,,,,,,,,,,,,,,,,,,,1,1,1,,,,DelayDiscountingTitrated Backup1,01-14-2024,15:23:18,1/14/2024 8:23:18 PM,2011,1,15,DelayDiscountingTitrated Backup1-2011-1,537854484,1,60.017,"<?xml version=""1.0""?>\n<Clock xmlns:dt=""urn:schemas-microsoft-com:datatypes""><Description dt:dt=""string"">E-Prime Primary Realtime Clock</Description><StartTime><Timestamp dt:dt=""int"">0</Timestamp><DateUtc dt:dt=""string"">2024-01-14T20:23:18Z</DateUtc></StartTime><FrequencyChanges><FrequencyChange><Frequency dt:dt=""r8"">10000000</Frequency><Timestamp dt:dt=""r8"">4832374065308</Timestamp><Current dt:dt=""r8"">0</Current><DateUtc dt:dt=""string"">2024-01-14T20:23:18Z</DateUtc></FrequencyChange></FrequencyChanges></Clock>\n",2.0.10.252,2.0.10.356,2.0.10.356,Professional,1.0.0.1
Proc1,,List9,,,,,,,600,3,400,400,984,3,0,,200,,,,,,,,,,,,,,,,,,,,,,,,,,,,,,,,,,,2,1,2,,,,DelayDiscountingTitrated Backup1,01-14-2024,15:23:18,1/14/2024 8:23:18 PM,2011,1,15,DelayDiscountingTitrated Backup1-2011-1,537854484,1,60.017,"<?xml version=""1.0""?>\n<Clock xmlns:dt=""urn:schemas-microsoft-com:datatypes""><Description dt:dt=""string"">E-Prime Primary Realtime Clock</Description><StartTime><Timestamp dt:dt=""int"">0</Timestamp><DateUtc dt:dt=""string"">2024-01-14T20:23:18Z</DateUtc></StartTime><FrequencyChanges><FrequencyChange><Frequency dt:dt=""r8"">10000000</Frequency><Timestamp dt:dt=""r8"">4832374065308</Timestamp><Current dt:dt=""r8"">0</Current><DateUtc dt:dt=""string"">2024-01-14T20:23:18Z</DateUtc></FrequencyChange></FrequencyChanges></Clock>\n",2.0.10.252,2.0.10.356,2.0.10.356,Professional,1.0.0.1
Proc1,,List9,,,,,,,700,3,600,600,1024,3,0,,100,,,,,,,,,,,,,,,,,,,,,,,,,,,,,,,,,,,3,1,3,,,,DelayDiscountingTitrated Backup1,01-14-2024,15:23:18,1/14/2024 8:23:18 PM,2011,1,15,DelayDiscountingTitrated Backup1-2011-1,537854484,1,60.017,"<?xml version=""1.0""?>\n<Clock xmlns:dt=""urn:schemas-microsoft-com:datatypes""><Description dt:dt=""string"">E-Prime Primary Realtime Clock</Description><StartTime><Timestamp dt:dt=""int"">0</Timestamp><DateUtc dt:dt=""string"">2024-01-14T20:23:18Z</DateUtc></StartTime><FrequencyChanges><FrequencyChange><Frequency dt:dt=""r8"">10000000</Frequency><Timestamp dt:dt=""r8"">4832374065308</Timestamp><Current dt:dt=""r8"">0</Current><DateUtc dt:dt=""string"">2024-01-14T20:23:18Z</DateUtc></FrequencyChange></FrequencyChanges></Clock>\n",2.0.10.252,2.0.10.356,2.0.10.356,Professional,1.0.0.1
Proc1,,List9,,,,,,,750,3,700,700,1582,3,0,,50,,,,,,,,,,,,,,,,,,,,,,,,,,,,,,,,,,,4,1,4,,,,DelayDiscountingTitrated Backup1,01-14-2024,15:23:18,1/14/2024 8:23:18 PM,2011,1,15,DelayDiscountingTitrated Backup1-2011-1,537854484,1,60.017,"<?xml version=""1.0""?>\n<Clock xmlns:dt=""urn:schemas-microsoft-com:datatypes""><Description dt:dt=""string"">E-Prime Primary Realtime Clock</Description><StartTime><Timestamp dt:dt=""int"">0</Timestamp><DateUtc dt:dt=""string"">2024-01-14T20:23:18Z</DateUtc></StartTime><FrequencyChanges><FrequencyChange><Frequency dt:dt=""r8"">10000000</Frequency><Timestamp dt:dt=""r8"">4832374065308</Timestamp><Current dt:dt=""r8"">0</Current><DateUtc dt:dt=""string"">2024-01-14T20:23:18Z</DateUtc></FrequencyChange></FrequencyChanges></Clock>\n",2.0.10.252,2.0.10.356,2.0.10.356,Professional,1.0.0.1
Proc1,,List9,,,,,,,725,1,750,750,1069,1,0,,25,,,,,,,,,,,,,,,,,,,,,,,,,,,,,,,,,,,5,1,5,,,,DelayDiscountingTitrated Backup1,01-14-2024,15:23:18,1/14/2024 8:23:18 PM,2011,1,15,DelayDiscountingTitrated Backup1-2011-1,537854484,1,60.017,"<?xml version=""1.0""?>\n<Clock xmlns:dt=""urn:schemas-microsoft-com:datatypes""><Description dt:dt=""string"">E-Prime Primary Realtime Clock</Description><StartTime><Timestamp dt:dt=""int"">0</Timestamp><DateUtc dt:dt=""string"">2024-01-14T20:23:18Z</DateUtc></StartTime><FrequencyChanges><FrequencyChange><Frequency dt:dt=""r8"">10000000</Frequency><Timestamp dt:dt=""r8"">4832374065308</Timestamp><Current dt:dt=""r8"">0</Current><DateUtc dt:dt=""string"">2024-01-14T20:23:18Z</DateUtc></FrequencyChange></FrequencyChanges></Clock>\n",2.0.10.252,2.0.10.356,2.0.10.356,Professional,1.0.0.1
Proc1,,List9,,,,,,,737,3,725,725,2729,3,0,,12,,,,,,,,,,,,,,,,,,,,,,,,,,,,,,,,,,,6,1,6,,,,DelayDiscountingTitrated Backup1,01-14-2024,15:23:18,1/14/2024 8:23:18 PM,2011,1,15,DelayDiscountingTitrated Backup1-2011-1,537854484,1,60.017,"<?xml version=""1.0""?>\n<Clock xmlns:dt=""urn:schemas-microsoft-com:datatypes""><Description dt:dt=""string"">E-Prime Primary Realtime Clock</Description><StartTime><Timestamp dt:dt=""int"">0</Timestamp><DateUtc dt:dt=""string"">2024-01-14T20:23:18Z</DateUtc></StartTime><FrequencyChanges><FrequencyChange><Frequency dt:dt=""r8"">10000000</Frequency><Timestamp dt:dt=""r8"">4832374065308</Timestamp><Current dt:dt=""r8"">0</Current><DateUtc dt:dt=""string"">2024-01-14T20:23:18Z</DateUtc></FrequencyChange></FrequencyChanges></Clock>\n",2.0.10.252,2.0.10.356,2.0.10.356,Professional,1.0.0.1
Proc1,,List9,,,,,,,743,3,737,737,1307,3,0,,6,,,,,,,,,,,,,,,,,,,,,,,,,,,,,,,,,,,7,1,7,,,,DelayDiscountingTitrated Backup1,01-14-2024,15:23:18,1/14/2024 8:23:18 PM,2011,1,15,DelayDiscountingTitrated Backup1-2011-1,537854484,1,60.017,"<?xml version=""1.0""?>\n<Clock xmlns:dt=""urn:schemas-microsoft-com:datatypes""><Description dt:dt=""string"">E-Prime Primary Realtime Clock</Description><StartTime><Timestamp dt:dt=""int"">0</Timestamp><DateUtc dt:dt=""string"">2024-01-14T20:23:18Z</DateUtc></StartTime><FrequencyChanges><FrequencyChange><Frequency dt:dt=""r8"">10000000</Frequency><Timestamp dt:dt=""r8"">4832374065308</Timestamp><Current dt:dt=""r8"">0</Current><DateUtc dt:dt=""string"">2024-01-14T20:23:18Z</DateUtc></FrequencyChange></FrequencyChanges></Clock>\n",2.0.10.252,2.0.10.356,2.0.10.356,Professional,1.0.0.1
Proc1,,List9,,,,,,,746,3,743,743,982,3,0,,3,,,,,,,,,,,,,,,,,,,,,,,,,,,,,,,,,,,8,1,8,,,,DelayDiscountingTitrated Backup1,01-14-2024,15:23:18,1/14/2024 8:23:18 PM,2011,1,15,DelayDiscountingTitrated Backup1-2011-1,537854484,1,60.017,"<?xml version=""1.0""?>\n<Clock xmlns:dt=""urn:schemas-microsoft-com:datatypes""><Description dt:dt=""string"">E-Prime Primary Realtime Clock</Description><StartTime><Timestamp dt:dt=""int"">0</Timestamp><DateUtc dt:dt=""string"">2024-01-14T20:23:18Z</DateUtc></StartTime><FrequencyChanges><FrequencyChange><Frequency dt:dt=""r8"">10000000</Frequency><Timestamp dt:dt=""r8"">4832374065308</Timestamp><Current dt:dt=""r8"">0</Current><DateUtc dt:dt=""string"">2024-01-14T20:23:18Z</DateUtc></FrequencyChange></FrequencyChanges></Clock>\n",2.0.10.252,2.0.10.356,2.0.10.356,Professional,1.0.0.1
Proc1,,List9,,,,,,,748,3,746,746,1037,3,0,,2,,,,,,,,,,,,,,,,,,,,,,,,,,,,,,,,,,,9,1,9,,,,DelayDiscountingTitrated Backup1,01-14-2024,15:23:18,1/14/2024 8:23:18 PM,2011,1,15,DelayDiscountingTitrated Backup1-2011-1,537854484,1,60.017,"<?xml version=""1.0""?>\n<Clock xmlns:dt=""urn:schemas-microsoft-com:datatypes""><Description dt:dt=""string"">E-Prime Primary Realtime Clock</Description><StartTime><Timestamp dt:dt=""int"">0</Timestamp><DateUtc dt:dt=""string"">2024-01-14T20:23:18Z</DateUtc></StartTime><FrequencyChanges><FrequencyChange><Frequency dt:dt=""r8"">10000000</Frequency><Timestamp dt:dt=""r8"">4832374065308</Timestamp><Current dt:dt=""r8"">0</Current><DateUtc dt:dt=""string"">2024-01-14T20:23:18Z</DateUtc></FrequencyChange></FrequencyChanges></Clock>\n",2.0.10.252,2.0.10.356,2.0.10.356,Professional,1.0.0.1
Proc1,,List9,,,,,,,749,3,748,748,882,3,0,,1,,,,,,,,,,,,,,,,,,,,,,,,,,,,,,,,,,,10,1,10,,,,DelayDiscountingTitrated Backup1,01-14-2024,15:23:18,1/14/2024 8:23:18 PM,2011,1,15,DelayDiscountingTitrated Backup1-2011-1,537854484,1,60.017,"<?xml version=""1.0""?>\n<Clock xmlns:dt=""urn:schemas-microsoft-com:datatypes""><Description dt:dt=""string"">E-Prime Primary Realtime Clock</Description><StartTime><Timestamp dt:dt=""int"">0</Timestamp><DateUtc dt:dt=""string"">2024-01-14T20:23:18Z</DateUtc></StartTime><FrequencyChanges><FrequencyChange><Frequency dt:dt=""r8"">10000000</Frequency><Timestamp dt:dt=""r8"">4832374065308</Timestamp><Current dt:dt=""r8"">0</Current><DateUtc dt:dt=""string"">2024-01-14T20:23:18Z</DateUtc></FrequencyChange></FrequencyChanges></Clock>\n",2.0.10.252,2.0.10.356,2.0.10.356,Professional,1.0.0.1
Proc1,,List9,,,,,,,749,3,748,749,990,3,0,,,,,,,,,,,,,,,,,,,,,,,,,,,,,,,,,,,,,11,1,11,,,,DelayDiscountingTitrated Backup1,01-14-2024,15:23:18,1/14/2024 8:23:18 PM,2011,1,15,DelayDiscountingTitrated Backup1-2011-1,537854484,1,60.017,"<?xml version=""1.0""?>\n<Clock xmlns:dt=""urn:schemas-microsoft-com:datatypes""><Description dt:dt=""string"">E-Prime Primary Realtime Clock</Description><StartTime><Timestamp dt:dt=""int"">0</Timestamp><DateUtc dt:dt=""string"">2024-01-14T20:23:18Z</DateUtc></StartTime><FrequencyChanges><FrequencyChange><Frequency dt:dt=""r8"">10000000</Frequency><Timestamp dt:dt=""r8"">4832374065308</Timestamp><Current dt:dt=""r8"">0</Current><DateUtc dt:dt=""string"">2024-01-14T20:23:18Z</DateUtc></FrequencyChange></FrequencyChanges></Clock>\n",2.0.10.252,2.0.10.356,2.0.10.356,Professional,1.0.0.1
discount1,,List4,,,,,,,,,,,,,,,,800,1 month,30,,,,,,,,,,,,,,,,,,,,,,,,,,,,,,,,,,,3,1,1,DelayDiscountingTitrated Backup1,01-14-2024,15:23:18,1/14/2024 8:23:18 PM,2011,1,15,DelayDiscountingTitrated Backup1-2011-1,537854484,1,60.017,"<?xml version=""1.0""?>\n<Clock xmlns:dt=""urn:schemas-microsoft-com:datatypes""><Description dt:dt=""string"">E-Prime Primary Realtime Clock</Description><StartTime><Timestamp dt:dt=""int"">0</Timestamp><DateUtc dt:dt=""string"">2024-01-14T20:23:18Z</DateUtc></StartTime><FrequencyChanges><FrequencyChange><Frequency dt:dt=""r8"">10000000</Frequency><Timestamp dt:dt=""r8"">4832374065308</Timestamp><Current dt:dt=""r8"">0</Current><DateUtc dt:dt=""string"">2024-01-14T20:23:18Z</DateUtc></FrequencyChange></FrequencyChanges></Clock>\n",2.0.10.252,2.0.10.356,2.0.10.356,Professional,1.0.0.1
onemthproc,,List1,,,,,,,,,,,,,,,,,,,,,,2,1,6,6,,,,,,,,,,,,,,,,,,,,,,,,,,,,,,,DelayDiscountingTitrated Backup1,01-14-2024,15:23:18,1/14/2024 8:23:18 PM,2011,1,15,DelayDiscountingTitrated Backup1-2011-1,537854484,1,60.017,"<?xml version=""1.0""?>\n<Clock xmlns:dt=""urn:schemas-microsoft-com:datatypes""><Description dt:dt=""string"">E-Prime Primary Realtime Clock</Description><StartTime><Timestamp dt:dt=""int"">0</Timestamp><DateUtc dt:dt=""string"">2024-01-14T20:23:18Z</DateUtc></StartTime><FrequencyChanges><FrequencyChange><Frequency dt:dt=""r8"">10000000</Frequency><Timestamp dt:dt=""r8"">4832374065308</Timestamp><Current dt:dt=""r8"">0</Current><DateUtc dt:dt=""string"">2024-01-14T20:23:18Z</DateUtc></FrequencyChange></FrequencyChanges></Clock>\n",2.0.10.252,2.0.10.356,2.0.10.356,Professional,1.0.0.1
,,,,,,,,,,,,,,,,,,,,,,,,,,,,,,,,,,,,,,,,,,,,,,,,,,,,,,,,,,DelayDiscountingTitrated Backup1,01-14-2024,15:23:18,1/14/2024 8:23:18 PM,2011,1,15,DelayDiscountingTitrated Backup1-2011-1,537854484,1,60.017,"<?xml version=""1.0""?>\n<Clock xmlns:dt=""urn:schemas-microsoft-com:datatypes""><Description dt:dt=""string"">E-Prime Primary Realtime Clock</Description><StartTime><Timestamp dt:dt=""int"">0</Timestamp><DateUtc dt:dt=""string"">2024-01-14T20:23:18Z</DateUtc></StartTime><FrequencyChanges><FrequencyChange><Frequency dt:dt=""r8"">10000000</Frequency><Timestamp dt:dt=""r8"">4832374065308</Timestamp><Current dt:dt=""r8"">0</Current><DateUtc dt:dt=""string"">2024-01-14T20:23:18Z</DateUtc></FrequencyChange></FrequencyChanges></Clock>\n",2.0.10.252,2.0.10.356,2.0.10.356,Professional,1.0.0.1
