Procedure,List9,Running,List9.Cycle,List9.Sample,Slide2.DEVICE,Slide2.RT,Slide2.RESP,Slide4.RT,Slide4.RESP,immed3,respprev,prevalue,imstring,Slide1.DEVICE,Slide1.RT,Slide1.RESP,Slide5.RT,Slide5.RESP,immed5,immed,delaypd,timedays,List4,List4.Cycle,List4.Sample,List1,List1.Cycle,List1.Sample,roundnumber,TextDisplay11.DEVICE,List10,List10.Cycle,List10.Sample,List5,List5.Cycle,List5.Sample,List13,List13.Cycle,List13.Sample,List8,List8.Cycle,List8.Sample,List12,List12.Cycle,List12.Sample,List7,List7.Cycle,List7.Sample,List2,List2.Cycle,List2.Sample,List3,List3.Cycle,List3.Sample,List11,List11.Cycle,List11.Sample,List6,List6.Cycle,List6.Sample,Experiment,SessionDate,SessionTime,SessionStartDateTimeUtc,Subject,Session,Age,DataFile.Basename,RandomSeed,Group,Display.RefreshRate,Clock.Information,StudioVersion,RuntimeVersion,RuntimeVersionExpected,RuntimeCapabilities,ExperimentVersion,TextDisplay14.DEVICE,Slide3.DEVICE
Init1,1,List9,1,1,Keyboard,3492,3,0,,900,3,800,,,,,,,,,,,,,,,,,,,,,,,,,,,,,,,,,,,,,,,,,,,,,,,,,DelayDiscountingTitrated,11-03-2024,08:34:59,11/3/2024 1:34:59 PM,2094,1,16,DelayDiscountingTitrated-2094-1,-705265510,1,75.003,"<?xml version=""1.0""?>\n<Clock xmlns:dt=""urn:schemas-microsoft-com:datatypes""><Description dt:dt=""string"">E-Prime Primary Realtime Clock</Description><StartTime><Timestamp dt:dt=""int"">0</Timestamp><DateUtc dt:dt=""string"">2024-11-03T13:34:58Z</DateUtc></StartTime><FrequencyChanges><FrequencyChange><Frequency dt:dt=""r8"">10000000</Frequency><Timestamp dt:dt=""r8"">2537617845634</Timestamp><Current dt:dt=""r8"">0</Current><DateUtc dt:dt=""string"">2024-11-03T13:34:58Z</DateUtc></FrequencyChange></FrequencyChanges></Clock>\n",3.0.3.43,3.0.3.60,3.0.3.60,Full,1.0.0.8,Keyboard,Keyboard
Proc1,2,List9,1,2,,,,,,950,3,900,900,Keyboard,4999,3,0,,50,,,,,,,,,,,,,,,,,,,,,,,,,,,,,,,,,,,,,,,,,,DelayDiscountingTitrated,11-03-2024,08:34:59,11/3/2024 1:34:59 PM,2094,1,16,DelayDiscountingTitrated-2094-1,-705265510,1,75.003,"<?xml version=""1.0""?>\n<Clock xmlns:dt=""urn:schemas-microsoft-com:datatypes""><Description dt:dt=""string"">E-Prime Primary Realtime Clock</Description><StartTime><Timestamp dt:dt=""int"">0</Timestamp><DateUtc dt:dt=""string"">2024-11-03T13:34:58Z</DateUtc></StartTime><FrequencyChanges><FrequencyChange><Frequency dt:dt=""r8"">10000000</Frequency><Timestamp dt:dt=""r8"">2537617845634</Timestamp><Current dt:dt=""r8"">0</Current><DateUtc dt:dt=""string"">2024-11-03T13:34:58Z</DateUtc></FrequencyChange></FrequencyChanges></Clock>\n",3.0.3.43,3.0.3.60,3.0.3.60,Full,1.0.0.8,Keyboard,Keyboard
Proc1,3,List9,1,3,,,,,,975,3,950,950,Keyboard,4524,3,0,,25,,,,,,,,,,,,,,,,,,,,,,,,,,,,,,,,,,,,,,,,,,DelayDiscountingTitrated,11-03-2024,08:34:59,11/3/2024 1:34:59 PM,2094,1,16,DelayDiscountingTitrated-2094-1,-705265510,1,75.003,"<?xml version=""1.0""?>\n<Clock xmlns:dt=""urn:schemas-microsoft-com:datatypes""><Description dt:dt=""string"">E-Prime Primary Realtime Clock</Description><StartTime><Timestamp dt:dt=""int"">0</Timestamp><DateUtc dt:dt=""string"">2024-11-03T13:34:58Z</DateUtc></StartTime><FrequencyChanges><FrequencyChange><Frequency dt:dt=""r8"">10000000</Frequency><Timestamp dt:dt=""r8"">2537617845634</Timestamp><Current dt:dt=""r8"">0</Current><DateUtc dt:dt=""string"">2024-11-03T13:34:58Z</DateUtc></FrequencyChange></FrequencyChanges></Clock>\n",3.0.3.43,3.0.3.60,3.0.3.60,Full,1.0.0.8,Keyboard,Keyboard
Proc1,4,List9,1,4,,,,,,987,3,975,975,Keyboard,2934,3,0,,12,,,,,,,,,,,,,,,,,,,,,,,,,,,,,,,,,,,,,,,,,,DelayDiscountingTitrated,11-03-2024,08:34:59,11/3/2024 1:34:59 PM,2094,1,16,DelayDiscountingTitrated-2094-1,-705265510,1,75.003,"<?xml version=""1.0""?>\n<Clock xmlns:dt=""urn:schemas-microsoft-com:datatypes""><Description dt:dt=""string"">E-Prime Primary Realtime Clock</Description><StartTime><Timestamp dt:dt=""int"">0</Timestamp><DateUtc dt:dt=""string"">2024-11-03T13:34:58Z</DateUtc></StartTime><FrequencyChanges><FrequencyChange><Frequency dt:dt=""r8"">10000000</Frequency><Timestamp dt:dt=""r8"">2537617845634</Timestamp><Current dt:dt=""r8"">0</Current><DateUtc dt:dt=""string"">2024-11-03T13:34:58Z</DateUtc></FrequencyChange></FrequencyChanges></Clock>\n",3.0.3.43,3.0.3.60,3.0.3.60,Full,1.0.0.8,Keyboard,Keyboard
Proc1,5,List9,1,5,,,,,,993,3,987,987,Keyboard,1645,3,0,,6,,,,,,,,,,,,,,,,,,,,,,,,,,,,,,,,,,,,,,,,,,DelayDiscountingTitrated,11-03-2024,08:34:59,11/3/2024 1:34:59 PM,2094,1,16,DelayDiscountingTitrated-2094-1,-705265510,1,75.003,"<?xml version=""1.0""?>\n<Clock xmlns:dt=""urn:schemas-microsoft-com:datatypes""><Description dt:dt=""string"">E-Prime Primary Realtime Clock</Description><StartTime><Timestamp dt:dt=""int"">0</Timestamp><DateUtc dt:dt=""string"">2024-11-03T13:34:58Z</DateUtc></StartTime><FrequencyChanges><FrequencyChange><Frequency dt:dt=""r8"">10000000</Frequency><Timestamp dt:dt=""r8"">2537617845634</Timestamp><Current dt:dt=""r8"">0</Current><DateUtc dt:dt=""string"">2024-11-03T13:34:58Z</DateUtc></FrequencyChange></FrequencyChanges></Clock>\n",3.0.3.43,3.0.3.60,3.0.3.60,Full,1.0.0.8,Keyboard,Keyboard
Proc1,6,List9,1,6,,,,,,997,3,993,993,Keyboard,3167,3,0,,4,,,,,,,,,,,,,,,,,,,,,,,,,,,,,,,,,,,,,,,,,,DelayDiscountingTitrated,11-03-2024,08:34:59,11/3/2024 1:34:59 PM,2094,1,16,DelayDiscountingTitrated-2094-1,-705265510,1,75.003,"<?xml version=""1.0""?>\n<Clock xmlns:dt=""urn:schemas-microsoft-com:datatypes""><Description dt:dt=""string"">E-Prime Primary Realtime Clock</Description><StartTime><Timestamp dt:dt=""int"">0</Timestamp><DateUtc dt:dt=""string"">2024-11-03T13:34:58Z</DateUtc></StartTime><FrequencyChanges><FrequencyChange><Frequency dt:dt=""r8"">10000000</Frequency><Timestamp dt:dt=""r8"">2537617845634</Timestamp><Current dt:dt=""r8"">0</Current><DateUtc dt:dt=""string"">2024-11-03T13:34:58Z</DateUtc></FrequencyChange></FrequencyChanges></Clock>\n",3.0.3.43,3.0.3.60,3.0.3.60,Full,1.0.0.8,Keyboard,Keyboard
Proc1,7,List9,1,7,,,,,,999,3,997,997,Keyboard,1056,3,0,,2,,,,,,,,,,,,,,,,,,,,,,,,,,,,,,,,,,,,,,,,,,DelayDiscountingTitrated,11-03-2024,08:34:59,11/3/2024 1:34:59 PM,2094,1,16,DelayDiscountingTitrated-2094-1,-705265510,1,75.003,"<?xml version=""1.0""?>\n<Clock xmlns:dt=""urn:schemas-microsoft-com:datatypes""><Description dt:dt=""string"">E-Prime Primary Realtime Clock</Description><StartTime><Timestamp dt:dt=""int"">0</Timestamp><DateUtc dt:dt=""string"">2024-11-03T13:34:58Z</DateUtc></StartTime><FrequencyChanges><FrequencyChange><Frequency dt:dt=""r8"">10000000</Frequency><Timestamp dt:dt=""r8"">2537617845634</Timestamp><Current dt:dt=""r8"">0</Current><DateUtc dt:dt=""string"">2024-11-03T13:34:58Z</DateUtc></FrequencyChange></FrequencyChanges></Clock>\n",3.0.3.43,3.0.3.60,3.0.3.60,Full,1.0.0.8,Keyboard,Keyboard
Proc1,8,List9,1,8,,,,,,999,3,,999,Keyboard,907,3,0,,,,,,,,,,,,,,,,,,,,,,,,,,,,,,,,,,,,,,,,,,,,DelayDiscountingTitrated,11-03-2024,08:34:59,11/3/2024 1:34:59 PM,2094,1,16,DelayDiscountingTitrated-2094-1,-705265510,1,75.003,"<?xml version=""1.0""?>\n<Clock xmlns:dt=""urn:schemas-microsoft-com:datatypes""><Description dt:dt=""string"">E-Prime Primary Realtime Clock</Description><StartTime><Timestamp dt:dt=""int"">0</Timestamp><DateUtc dt:dt=""string"">2024-11-03T13:34:58Z</DateUtc></StartTime><FrequencyChanges><FrequencyChange><Frequency dt:dt=""r8"">10000000</Frequency><Timestamp dt:dt=""r8"">2537617845634</Timestamp><Current dt:dt=""r8"">0</Current><DateUtc dt:dt=""string"">2024-11-03T13:34:58Z</DateUtc></FrequencyChange></FrequencyChanges></Clock>\n",3.0.3.43,3.0.3.60,3.0.3.60,Full,1.0.0.8,Keyboard,Keyboard
discount1,,List4,,,,,,,,,,,,,,,,,,800,1 month,30,3,1,1,,,,,,,,,,,,,,,,,,,,,,,,,,,,,,,,,,,,DelayDiscountingTitrated,11-03-2024,08:34:59,11/3/2024 1:34:59 PM,2094,1,16,DelayDiscountingTitrated-2094-1,-705265510,1,75.003,"<?xml version=""1.0""?>\n<Clock xmlns:dt=""urn:schemas-microsoft-com:datatypes""><Description dt:dt=""string"">E-Prime Primary Realtime Clock</Description><StartTime><Timestamp dt:dt=""int"">0</Timestamp><DateUtc dt:dt=""string"">2024-11-03T13:34:58Z</DateUtc></StartTime><FrequencyChanges><FrequencyChange><Frequency dt:dt=""r8"">10000000</Frequency><Timestamp dt:dt=""r8"">2537617845634</Timestamp><Current dt:dt=""r8"">0</Current><DateUtc dt:dt=""string"">2024-11-03T13:34:58Z</DateUtc></FrequencyChange></FrequencyChanges></Clock>\n",3.0.3.43,3.0.3.60,3.0.3.60,Full,1.0.0.8,Keyboard,Keyboard
onemthproc,,List1,,,,,,,,,,,,,,,,,,,,,,,,2,1,1,1,Keyboard,,,,,,,,,,,,,,,,,,,,,,,,,,,,,,,DelayDiscountingTitrated,11-03-2024,08:34:59,11/3/2024 1:34:59 PM,2094,1,16,DelayDiscountingTitrated-2094-1,-705265510,1,75.003,"<?xml version=""1.0""?>\n<Clock xmlns:dt=""urn:schemas-microsoft-com:datatypes""><Description dt:dt=""string"">E-Prime Primary Realtime Clock</Description><StartTime><Timestamp dt:dt=""int"">0</Timestamp><DateUtc dt:dt=""string"">2024-11-03T13:34:58Z</DateUtc></StartTime><FrequencyChanges><FrequencyChange><Frequency dt:dt=""r8"">10000000</Frequency><Timestamp dt:dt=""r8"">2537617845634</Timestamp><Current dt:dt=""r8"">0</Current><DateUtc dt:dt=""string"">2024-11-03T13:34:58Z</DateUtc></FrequencyChange></FrequencyChanges></Clock>\n",3.0.3.43,3.0.3.60,3.0.3.60,Full,1.0.0.8,Keyboard,Keyboard
Init2,,List10,,,Keyboard,8799,1,0,,250,1,500,,,,,,,,,,,,,,,,,,,1,1,1,,,,,,,,,,,,,,,,,,,,,,,,,,,,DelayDiscountingTitrated,11-03-2024,08:34:59,11/3/2024 1:34:59 PM,2094,1,16,DelayDiscountingTitrated-2094-1,-705265510,1,75.003,"<?xml version=""1.0""?>\n<Clock xmlns:dt=""urn:schemas-microsoft-com:datatypes""><Description dt:dt=""string"">E-Prime Primary Realtime Clock</Description><StartTime><Timestamp dt:dt=""int"">0</Timestamp><DateUtc dt:dt=""string"">2024-11-03T13:34:58Z</DateUtc></StartTime><FrequencyChanges><FrequencyChange><Frequency dt:dt=""r8"">10000000</Frequency><Timestamp dt:dt=""r8"">2537617845634</Timestamp><Current dt:dt=""r8"">0</Current><DateUtc dt:dt=""string"">2024-11-03T13:34:58Z</DateUtc></FrequencyChange></FrequencyChanges></Clock>\n",3.0.3.43,3.0.3.60,3.0.3.60,Full,1.0.0.8,Keyboard,Keyboard
Proc2,,List10,,,,,,,,375,3,250,250,Keyboard,3323,3,0,,125,,,,,,,,,,,,2,1,2,,,,,,,,,,,,,,,,,,,,,,,,,,,,DelayDiscountingTitrated,11-03-2024,08:34:59,11/3/2024 1:34:59 PM,2094,1,16,DelayDiscountingTitrated-2094-1,-705265510,1,75.003,"<?xml version=""1.0""?>\n<Clock xmlns:dt=""urn:schemas-microsoft-com:datatypes""><Description dt:dt=""string"">E-Prime Primary Realtime Clock</Description><StartTime><Timestamp dt:dt=""int"">0</Timestamp><DateUtc dt:dt=""string"">2024-11-03T13:34:58Z</DateUtc></StartTime><FrequencyChanges><FrequencyChange><Frequency dt:dt=""r8"">10000000</Frequency><Timestamp dt:dt=""r8"">2537617845634</Timestamp><Current dt:dt=""r8"">0</Current><DateUtc dt:dt=""string"">2024-11-03T13:34:58Z</DateUtc></FrequencyChange></FrequencyChanges></Clock>\n",3.0.3.43,3.0.3.60,3.0.3.60,Full,1.0.0.8,Keyboard,Keyboard
Proc2,,List10,,,,,,,,437,3,375,375,Keyboard,4809,3,0,,62,,,,,,,,,,,,3,1,3,,,,,,,,,,,,,,,,,,,,,,,,,,,,DelayDiscountingTitrated,11-03-2024,08:34:59,11/3/2024 1:34:59 PM,2094,1,16,DelayDiscountingTitrated-2094-1,-705265510,1,75.003,"<?xml version=""1.0""?>\n<Clock xmlns:dt=""urn:schemas-microsoft-com:datatypes""><Description dt:dt=""string"">E-Prime Primary Realtime Clock</Description><StartTime><Timestamp dt:dt=""int"">0</Timestamp><DateUtc dt:dt=""string"">2024-11-03T13:34:58Z</DateUtc></StartTime><FrequencyChanges><FrequencyChange><Frequency dt:dt=""r8"">10000000</Frequency><Timestamp dt:dt=""r8"">2537617845634</Timestamp><Current dt:dt=""r8"">0</Current><DateUtc dt:dt=""string"">2024-11-03T13:34:58Z</DateUtc></FrequencyChange></FrequencyChanges></Clock>\n",3.0.3.43,3.0.3.60,3.0.3.60,Full,1.0.0.8,Keyboard,Keyboard
Proc2,,List10,,,,,,,,468,3,437,437,Keyboard,3652,3,0,,31,,,,,,,,,,,,4,1,4,,,,,,,,,,,,,,,,,,,,,,,,,,,,DelayDiscountingTitrated,11-03-2024,08:34:59,11/3/2024 1:34:59 PM,2094,1,16,DelayDiscountingTitrated-2094-1,-705265510,1,75.003,"<?xml version=""1.0""?>\n<Clock xmlns:dt=""urn:schemas-microsoft-com:datatypes""><Description dt:dt=""string"">E-Prime Primary Realtime Clock</Description><StartTime><Timestamp dt:dt=""int"">0</Timestamp><DateUtc dt:dt=""string"">2024-11-03T13:34:58Z</DateUtc></StartTime><FrequencyChanges><FrequencyChange><Frequency dt:dt=""r8"">10000000</Frequency><Timestamp dt:dt=""r8"">2537617845634</Timestamp><Current dt:dt=""r8"">0</Current><DateUtc dt:dt=""string"">2024-11-03T13:34:58Z</DateUtc></FrequencyChange></FrequencyChanges></Clock>\n",3.0.3.43,3.0.3.60,3.0.3.60,Full,1.0.0.8,Keyboard,Keyboard
Proc2,,List10,,,,,,,,484,3,468,468,Keyboard,4397,3,0,,16,,,,,,,,,,,,5,1,5,,,,,,,,,,,,,,,,,,,,,,,,,,,,DelayDiscountingTitrated,11-03-2024,08:34:59,11/3/2024 1:34:59 PM,2094,1,16,DelayDiscountingTitrated-2094-1,-705265510,1,75.003,"<?xml version=""1.0""?>\n<Clock xmlns:dt=""urn:schemas-microsoft-com:datatypes""><Description dt:dt=""string"">E-Prime Primary Realtime Clock</Description><StartTime><Timestamp dt:dt=""int"">0</Timestamp><DateUtc dt:dt=""string"">2024-11-03T13:34:58Z</DateUtc></StartTime><FrequencyChanges><FrequencyChange><Frequency dt:dt=""r8"">10000000</Frequency><Timestamp dt:dt=""r8"">2537617845634</Timestamp><Current dt:dt=""r8"">0</Current><DateUtc dt:dt=""string"">2024-11-03T13:34:58Z</DateUtc></FrequencyChange></FrequencyChanges></Clock>\n",3.0.3.43,3.0.3.60,3.0.3.60,Full,1.0.0.8,Keyboard,Keyboard
Proc2,,List10,,,,,,,,492,3,484,484,Keyboard,3020,3,0,,8,,,,,,,,,,,,6,1,6,,,,,,,,,,,,,,,,,,,,,,,,,,,,DelayDiscountingTitrated,11-03-2024,08:34:59,11/3/2024 1:34:59 PM,2094,1,16,DelayDiscountingTitrated-2094-1,-705265510,1,75.003,"<?xml version=""1.0""?>\n<Clock xmlns:dt=""urn:schemas-microsoft-com:datatypes""><Description dt:dt=""string"">E-Prime Primary Realtime Clock</Description><StartTime><Timestamp dt:dt=""int"">0</Timestamp><DateUtc dt:dt=""string"">2024-11-03T13:34:58Z</DateUtc></StartTime><FrequencyChanges><FrequencyChange><Frequency dt:dt=""r8"">10000000</Frequency><Timestamp dt:dt=""r8"">2537617845634</Timestamp><Current dt:dt=""r8"">0</Current><DateUtc dt:dt=""string"">2024-11-03T13:34:58Z</DateUtc></FrequencyChange></FrequencyChanges></Clock>\n",3.0.3.43,3.0.3.60,3.0.3.60,Full,1.0.0.8,Keyboard,Keyboard
Proc2,,List10,,,,,,,,496,3,492,492,Keyboard,5524,3,0,,4,,,,,,,,,,,,7,1,7,,,,,,,,,,,,,,,,,,,,,,,,,,,,DelayDiscountingTitrated,11-03-2024,08:34:59,11/3/2024 1:34:59 PM,2094,1,16,DelayDiscountingTitrated-2094-1,-705265510,1,75.003,"<?xml version=""1.0""?>\n<Clock xmlns:dt=""urn:schemas-microsoft-com:datatypes""><Description dt:dt=""string"">E-Prime Primary Realtime Clock</Description><StartTime><Timestamp dt:dt=""int"">0</Timestamp><DateUtc dt:dt=""string"">2024-11-03T13:34:58Z</DateUtc></StartTime><FrequencyChanges><FrequencyChange><Frequency dt:dt=""r8"">10000000</Frequency><Timestamp dt:dt=""r8"">2537617845634</Timestamp><Current dt:dt=""r8"">0</Current><DateUtc dt:dt=""string"">2024-11-03T13:34:58Z</DateUtc></FrequencyChange></FrequencyChanges></Clock>\n",3.0.3.43,3.0.3.60,3.0.3.60,Full,1.0.0.8,Keyboard,Keyboard
Proc2,,List10,,,,,,,,498,3,496,496,Keyboard,2813,3,0,,2,,,,,,,,,,,,8,1,8,,,,,,,,,,,,,,,,,,,,,,,,,,,,DelayDiscountingTitrated,11-03-2024,08:34:59,11/3/2024 1:34:59 PM,2094,1,16,DelayDiscountingTitrated-2094-1,-705265510,1,75.003,"<?xml version=""1.0""?>\n<Clock xmlns:dt=""urn:schemas-microsoft-com:datatypes""><Description dt:dt=""string"">E-Prime Primary Realtime Clock</Description><StartTime><Timestamp dt:dt=""int"">0</Timestamp><DateUtc dt:dt=""string"">2024-11-03T13:34:58Z</DateUtc></StartTime><FrequencyChanges><FrequencyChange><Frequency dt:dt=""r8"">10000000</Frequency><Timestamp dt:dt=""r8"">2537617845634</Timestamp><Current dt:dt=""r8"">0</Current><DateUtc dt:dt=""string"">2024-11-03T13:34:58Z</DateUtc></FrequencyChange></FrequencyChanges></Clock>\n",3.0.3.43,3.0.3.60,3.0.3.60,Full,1.0.0.8,Keyboard,Keyboard
Proc2,,List10,,,,,,,,499,3,498,498,Keyboard,3585,3,0,,1,,,,,,,,,,,,9,1,9,,,,,,,,,,,,,,,,,,,,,,,,,,,,DelayDiscountingTitrated,11-03-2024,08:34:59,11/3/2024 1:34:59 PM,2094,1,16,DelayDiscountingTitrated-2094-1,-705265510,1,75.003,"<?xml version=""1.0""?>\n<Clock xmlns:dt=""urn:schemas-microsoft-com:datatypes""><Description dt:dt=""string"">E-Prime Primary Realtime Clock</Description><StartTime><Timestamp dt:dt=""int"">0</Timestamp><DateUtc dt:dt=""string"">2024-11-03T13:34:58Z</DateUtc></StartTime><FrequencyChanges><FrequencyChange><Frequency dt:dt=""r8"">10000000</Frequency><Timestamp dt:dt=""r8"">2537617845634</Timestamp><Current dt:dt=""r8"">0</Current><DateUtc dt:dt=""string"">2024-11-03T13:34:58Z</DateUtc></FrequencyChange></FrequencyChanges></Clock>\n",3.0.3.43,3.0.3.60,3.0.3.60,Full,1.0.0.8,Keyboard,Keyboard
Proc2,,List10,,,,,,,,499,3,498,499,Keyboard,5673,3,0,,,,,,,,,,,,,,10,1,10,,,,,,,,,,,,,,,,,,,,,,,,,,,,DelayDiscountingTitrated,11-03-2024,08:34:59,11/3/2024 1:34:59 PM,2094,1,16,DelayDiscountingTitrated-2094-1,-705265510,1,75.003,"<?xml version=""1.0""?>\n<Clock xmlns:dt=""urn:schemas-microsoft-com:datatypes""><Description dt:dt=""string"">E-Prime Primary Realtime Clock</Description><StartTime><Timestamp dt:dt=""int"">0</Timestamp><DateUtc dt:dt=""string"">2024-11-03T13:34:58Z</DateUtc></StartTime><FrequencyChanges><FrequencyChange><Frequency dt:dt=""r8"">10000000</Frequency><Timestamp dt:dt=""r8"">2537617845634</Timestamp><Current dt:dt=""r8"">0</Current><DateUtc dt:dt=""string"">2024-11-03T13:34:58Z</DateUtc></FrequencyChange></FrequencyChanges></Clock>\n",3.0.3.43,3.0.3.60,3.0.3.60,Full,1.0.0.8,Keyboard,Keyboard
discount2,,List5,,,,,,,,,,,,,,,,,,500,6 month,180,,,,,,,,,,,,2,1,1,,,,,,,,,,,,,,,,,,,,,,,,,DelayDiscountingTitrated,11-03-2024,08:34:59,11/3/2024 1:34:59 PM,2094,1,16,DelayDiscountingTitrated-2094-1,-705265510,1,75.003,"<?xml version=""1.0""?>\n<Clock xmlns:dt=""urn:schemas-microsoft-com:datatypes""><Description dt:dt=""string"">E-Prime Primary Realtime Clock</Description><StartTime><Timestamp dt:dt=""int"">0</Timestamp><DateUtc dt:dt=""string"">2024-11-03T13:34:58Z</DateUtc></StartTime><FrequencyChanges><FrequencyChange><Frequency dt:dt=""r8"">10000000</Frequency><Timestamp dt:dt=""r8"">2537617845634</Timestamp><Current dt:dt=""r8"">0</Current><DateUtc dt:dt=""string"">2024-11-03T13:34:58Z</DateUtc></FrequencyChange></FrequencyChanges></Clock>\n",3.0.3.43,3.0.3.60,3.0.3.60,Full,1.0.0.8,Keyboard,Keyboard
sixmthproc,,List1,,,,,,,,,,,,,,,,,,,,,,,,3,1,2,2,Keyboard,,,,,,,,,,,,,,,,,,,,,,,,,,,,,,,DelayDiscountingTitrated,11-03-2024,08:34:59,11/3/2024 1:34:59 PM,2094,1,16,DelayDiscountingTitrated-2094-1,-705265510,1,75.003,"<?xml version=""1.0""?>\n<Clock xmlns:dt=""urn:schemas-microsoft-com:datatypes""><Description dt:dt=""string"">E-Prime Primary Realtime Clock</Description><StartTime><Timestamp dt:dt=""int"">0</Timestamp><DateUtc dt:dt=""string"">2024-11-03T13:34:58Z</DateUtc></StartTime><FrequencyChanges><FrequencyChange><Frequency dt:dt=""r8"">10000000</Frequency><Timestamp dt:dt=""r8"">2537617845634</Timestamp><Current dt:dt=""r8"">0</Current><DateUtc dt:dt=""string"">2024-11-03T13:34:58Z</DateUtc></FrequencyChange></FrequencyChanges></Clock>\n",3.0.3.43,3.0.3.60,3.0.3.60,Full,1.0.0.8,Keyboard,Keyboard
Init5,,List13,,,Keyboard,8619,1,0,,100,1,200,,,,,,,,,,,,,,,,,,,,,,,,,1,1,1,,,,,,,,,,,,,,,,,,,,,,DelayDiscountingTitrated,11-03-2024,08:34:59,11/3/2024 1:34:59 PM,2094,1,16,DelayDiscountingTitrated-2094-1,-705265510,1,75.003,"<?xml version=""1.0""?>\n<Clock xmlns:dt=""urn:schemas-microsoft-com:datatypes""><Description dt:dt=""string"">E-Prime Primary Realtime Clock</Description><StartTime><Timestamp dt:dt=""int"">0</Timestamp><DateUtc dt:dt=""string"">2024-11-03T13:34:58Z</DateUtc></StartTime><FrequencyChanges><FrequencyChange><Frequency dt:dt=""r8"">10000000</Frequency><Timestamp dt:dt=""r8"">2537617845634</Timestamp><Current dt:dt=""r8"">0</Current><DateUtc dt:dt=""string"">2024-11-03T13:34:58Z</DateUtc></FrequencyChange></FrequencyChanges></Clock>\n",3.0.3.43,3.0.3.60,3.0.3.60,Full,1.0.0.8,Keyboard,Keyboard
Proc5,,List13,,,,,,,,150,3,100,100,Keyboard,6031,3,0,,50,,,,,,,,,,,,,,,,,,2,1,2,,,,,,,,,,,,,,,,,,,,,,DelayDiscountingTitrated,11-03-2024,08:34:59,11/3/2024 1:34:59 PM,2094,1,16,DelayDiscountingTitrated-2094-1,-705265510,1,75.003,"<?xml version=""1.0""?>\n<Clock xmlns:dt=""urn:schemas-microsoft-com:datatypes""><Description dt:dt=""string"">E-Prime Primary Realtime Clock</Description><StartTime><Timestamp dt:dt=""int"">0</Timestamp><DateUtc dt:dt=""string"">2024-11-03T13:34:58Z</DateUtc></StartTime><FrequencyChanges><FrequencyChange><Frequency dt:dt=""r8"">10000000</Frequency><Timestamp dt:dt=""r8"">2537617845634</Timestamp><Current dt:dt=""r8"">0</Current><DateUtc dt:dt=""string"">2024-11-03T13:34:58Z</DateUtc></FrequencyChange></FrequencyChanges></Clock>\n",3.0.3.43,3.0.3.60,3.0.3.60,Full,1.0.0.8,Keyboard,Keyboard
Proc5,,List13,,,,,,,,175,3,150,150,Keyboard,3692,3,0,,25,,,,,,,,,,,,,,,,,,3,1,3,,,,,,,,,,,,,,,,,,,,,,DelayDiscountingTitrated,11-03-2024,08:34:59,11/3/2024 1:34:59 PM,2094,1,16,DelayDiscountingTitrated-2094-1,-705265510,1,75.003,"<?xml version=""1.0""?>\n<Clock xmlns:dt=""urn:schemas-microsoft-com:datatypes""><Description dt:dt=""string"">E-Prime Primary Realtime Clock</Description><StartTime><Timestamp dt:dt=""int"">0</Timestamp><DateUtc dt:dt=""string"">2024-11-03T13:34:58Z</DateUtc></StartTime><FrequencyChanges><FrequencyChange><Frequency dt:dt=""r8"">10000000</Frequency><Timestamp dt:dt=""r8"">2537617845634</Timestamp><Current dt:dt=""r8"">0</Current><DateUtc dt:dt=""string"">2024-11-03T13:34:58Z</DateUtc></FrequencyChange></FrequencyChanges></Clock>\n",3.0.3.43,3.0.3.60,3.0.3.60,Full,1.0.0.8,Keyboard,Keyboard
Proc5,,List13,,,,,,,,163,1,175,175,Keyboard,2881,1,0,,12,,,,,,,,,,,,,,,,,,4,1,4,,,,,,,,,,,,,,,,,,,,,,DelayDiscountingTitrated,11-03-2024,08:34:59,11/3/2024 1:34:59 PM,2094,1,16,DelayDiscountingTitrated-2094-1,-705265510,1,75.003,"<?xml version=""1.0""?>\n<Clock xmlns:dt=""urn:schemas-microsoft-com:datatypes""><Description dt:dt=""string"">E-Prime Primary Realtime Clock</Description><StartTime><Timestamp dt:dt=""int"">0</Timestamp><DateUtc dt:dt=""string"">2024-11-03T13:34:58Z</DateUtc></StartTime><FrequencyChanges><FrequencyChange><Frequency dt:dt=""r8"">10000000</Frequency><Timestamp dt:dt=""r8"">2537617845634</Timestamp><Current dt:dt=""r8"">0</Current><DateUtc dt:dt=""string"">2024-11-03T13:34:58Z</DateUtc></FrequencyChange></FrequencyChanges></Clock>\n",3.0.3.43,3.0.3.60,3.0.3.60,Full,1.0.0.8,Keyboard,Keyboard
Proc5,,List13,,,,,,,,157,1,163,163,Keyboard,2356,1,0,,6,,,,,,,,,,,,,,,,,,5,1,5,,,,,,,,,,,,,,,,,,,,,,DelayDiscountingTitrated,11-03-2024,08:34:59,11/3/2024 1:34:59 PM,2094,1,16,DelayDiscountingTitrated-2094-1,-705265510,1,75.003,"<?xml version=""1.0""?>\n<Clock xmlns:dt=""urn:schemas-microsoft-com:datatypes""><Description dt:dt=""string"">E-Prime Primary Realtime Clock</Description><StartTime><Timestamp dt:dt=""int"">0</Timestamp><DateUtc dt:dt=""string"">2024-11-03T13:34:58Z</DateUtc></StartTime><FrequencyChanges><FrequencyChange><Frequency dt:dt=""r8"">10000000</Frequency><Timestamp dt:dt=""r8"">2537617845634</Timestamp><Current dt:dt=""r8"">0</Current><DateUtc dt:dt=""string"">2024-11-03T13:34:58Z</DateUtc></FrequencyChange></FrequencyChanges></Clock>\n",3.0.3.43,3.0.3.60,3.0.3.60,Full,1.0.0.8,Keyboard,Keyboard
Proc5,,List13,,,,,,,,154,1,157,157,Keyboard,2907,1,0,,3,,,,,,,,,,,,,,,,,,6,1,6,,,,,,,,,,,,,,,,,,,,,,DelayDiscountingTitrated,11-03-2024,08:34:59,11/3/2024 1:34:59 PM,2094,1,16,DelayDiscountingTitrated-2094-1,-705265510,1,75.003,"<?xml version=""1.0""?>\n<Clock xmlns:dt=""urn:schemas-microsoft-com:datatypes""><Description dt:dt=""string"">E-Prime Primary Realtime Clock</Description><StartTime><Timestamp dt:dt=""int"">0</Timestamp><DateUtc dt:dt=""string"">2024-11-03T13:34:58Z</DateUtc></StartTime><FrequencyChanges><FrequencyChange><Frequency dt:dt=""r8"">10000000</Frequency><Timestamp dt:dt=""r8"">2537617845634</Timestamp><Current dt:dt=""r8"">0</Current><DateUtc dt:dt=""string"">2024-11-03T13:34:58Z</DateUtc></FrequencyChange></FrequencyChanges></Clock>\n",3.0.3.43,3.0.3.60,3.0.3.60,Full,1.0.0.8,Keyboard,Keyboard
Proc5,,List13,,,,,,,,152,1,154,154,Keyboard,3531,1,0,,2,,,,,,,,,,,,,,,,,,7,1,7,,,,,,,,,,,,,,,,,,,,,,DelayDiscountingTitrated,11-03-2024,08:34:59,11/3/2024 1:34:59 PM,2094,1,16,DelayDiscountingTitrated-2094-1,-705265510,1,75.003,"<?xml version=""1.0""?>\n<Clock xmlns:dt=""urn:schemas-microsoft-com:datatypes""><Description dt:dt=""string"">E-Prime Primary Realtime Clock</Description><StartTime><Timestamp dt:dt=""int"">0</Timestamp><DateUtc dt:dt=""string"">2024-11-03T13:34:58Z</DateUtc></StartTime><FrequencyChanges><FrequencyChange><Frequency dt:dt=""r8"">10000000</Frequency><Timestamp dt:dt=""r8"">2537617845634</Timestamp><Current dt:dt=""r8"">0</Current><DateUtc dt:dt=""string"">2024-11-03T13:34:58Z</DateUtc></FrequencyChange></FrequencyChanges></Clock>\n",3.0.3.43,3.0.3.60,3.0.3.60,Full,1.0.0.8,Keyboard,Keyboard
Proc5,,List13,,,,,,,,151,1,152,152,Keyboard,1735,1,0,,1,,,,,,,,,,,,,,,,,,8,1,8,,,,,,,,,,,,,,,,,,,,,,DelayDiscountingTitrated,11-03-2024,08:34:59,11/3/2024 1:34:59 PM,2094,1,16,DelayDiscountingTitrated-2094-1,-705265510,1,75.003,"<?xml version=""1.0""?>\n<Clock xmlns:dt=""urn:schemas-microsoft-com:datatypes""><Description dt:dt=""string"">E-Prime Primary Realtime Clock</Description><StartTime><Timestamp dt:dt=""int"">0</Timestamp><DateUtc dt:dt=""string"">2024-11-03T13:34:58Z</DateUtc></StartTime><FrequencyChanges><FrequencyChange><Frequency dt:dt=""r8"">10000000</Frequency><Timestamp dt:dt=""r8"">2537617845634</Timestamp><Current dt:dt=""r8"">0</Current><DateUtc dt:dt=""string"">2024-11-03T13:34:58Z</DateUtc></FrequencyChange></FrequencyChanges></Clock>\n",3.0.3.43,3.0.3.60,3.0.3.60,Full,1.0.0.8,Keyboard,Keyboard
Proc5,,List13,,,,,,,,151,1,152,151,Keyboard,2824,1,0,,,,,,,,,,,,,,,,,,,,9,1,9,,,,,,,,,,,,,,,,,,,,,,DelayDiscountingTitrated,11-03-2024,08:34:59,11/3/2024 1:34:59 PM,2094,1,16,DelayDiscountingTitrated-2094-1,-705265510,1,75.003,"<?xml version=""1.0""?>\n<Clock xmlns:dt=""urn:schemas-microsoft-com:datatypes""><Description dt:dt=""string"">E-Prime Primary Realtime Clock</Description><StartTime><Timestamp dt:dt=""int"">0</Timestamp><DateUtc dt:dt=""string"">2024-11-03T13:34:58Z</DateUtc></StartTime><FrequencyChanges><FrequencyChange><Frequency dt:dt=""r8"">10000000</Frequency><Timestamp dt:dt=""r8"">2537617845634</Timestamp><Current dt:dt=""r8"">0</Current><DateUtc dt:dt=""string"">2024-11-03T13:34:58Z</DateUtc></FrequencyChange></FrequencyChanges></Clock>\n",3.0.3.43,3.0.3.60,3.0.3.60,Full,1.0.0.8,Keyboard,Keyboard
discount5,,List8,,,,,,,,,,,,,,,,,,200,15 years,5475,,,,,,,,,,,,,,,,,,1,2,1,,,,,,,,,,,,,,,,,,,DelayDiscountingTitrated,11-03-2024,08:34:59,11/3/2024 1:34:59 PM,2094,1,16,DelayDiscountingTitrated-2094-1,-705265510,1,75.003,"<?xml version=""1.0""?>\n<Clock xmlns:dt=""urn:schemas-microsoft-com:datatypes""><Description dt:dt=""string"">E-Prime Primary Realtime Clock</Description><StartTime><Timestamp dt:dt=""int"">0</Timestamp><DateUtc dt:dt=""string"">2024-11-03T13:34:58Z</DateUtc></StartTime><FrequencyChanges><FrequencyChange><Frequency dt:dt=""r8"">10000000</Frequency><Timestamp dt:dt=""r8"">2537617845634</Timestamp><Current dt:dt=""r8"">0</Current><DateUtc dt:dt=""string"">2024-11-03T13:34:58Z</DateUtc></FrequencyChange></FrequencyChanges></Clock>\n",3.0.3.43,3.0.3.60,3.0.3.60,Full,1.0.0.8,Keyboard,Keyboard
fifteenyearproc,,List1,,,,,,,,,,,,,,,,,,,,,,,,6,1,3,3,Keyboard,,,,,,,,,,,,,,,,,,,,,,,,,,,,,,,DelayDiscountingTitrated,11-03-2024,08:34:59,11/3/2024 1:34:59 PM,2094,1,16,DelayDiscountingTitrated-2094-1,-705265510,1,75.003,"<?xml version=""1.0""?>\n<Clock xmlns:dt=""urn:schemas-microsoft-com:datatypes""><Description dt:dt=""string"">E-Prime Primary Realtime Clock</Description><StartTime><Timestamp dt:dt=""int"">0</Timestamp><DateUtc dt:dt=""string"">2024-11-03T13:34:58Z</DateUtc></StartTime><FrequencyChanges><FrequencyChange><Frequency dt:dt=""r8"">10000000</Frequency><Timestamp dt:dt=""r8"">2537617845634</Timestamp><Current dt:dt=""r8"">0</Current><DateUtc dt:dt=""string"">2024-11-03T13:34:58Z</DateUtc></FrequencyChange></FrequencyChanges></Clock>\n",3.0.3.43,3.0.3.60,3.0.3.60,Full,1.0.0.8,Keyboard,Keyboard
Init4,,List12,,,Keyboard,13254,1,0,,250,1,500,,,,,,,,,,,,,,,,,,,,,,,,,,,,,,,1,1,1,,,,,,,,,,,,,,,,DelayDiscountingTitrated,11-03-2024,08:34:59,11/3/2024 1:34:59 PM,2094,1,16,DelayDiscountingTitrated-2094-1,-705265510,1,75.003,"<?xml version=""1.0""?>\n<Clock xmlns:dt=""urn:schemas-microsoft-com:datatypes""><Description dt:dt=""string"">E-Prime Primary Realtime Clock</Description><StartTime><Timestamp dt:dt=""int"">0</Timestamp><DateUtc dt:dt=""string"">2024-11-03T13:34:58Z</DateUtc></StartTime><FrequencyChanges><FrequencyChange><Frequency dt:dt=""r8"">10000000</Frequency><Timestamp dt:dt=""r8"">2537617845634</Timestamp><Current dt:dt=""r8"">0</Current><DateUtc dt:dt=""string"">2024-11-03T13:34:58Z</DateUtc></FrequencyChange></FrequencyChanges></Clock>\n",3.0.3.43,3.0.3.60,3.0.3.60,Full,1.0.0.8,Keyboard,Keyboard
Proc4,,List12,,,,,,,,375,3,250,250,Keyboard,1961,3,0,,125,,,,,,,,,,,,,,,,,,,,,,,,2,1,2,,,,,,,,,,,,,,,,DelayDiscountingTitrated,11-03-2024,08:34:59,11/3/2024 1:34:59 PM,2094,1,16,DelayDiscountingTitrated-2094-1,-705265510,1,75.003,"<?xml version=""1.0""?>\n<Clock xmlns:dt=""urn:schemas-microsoft-com:datatypes""><Description dt:dt=""string"">E-Prime Primary Realtime Clock</Description><StartTime><Timestamp dt:dt=""int"">0</Timestamp><DateUtc dt:dt=""string"">2024-11-03T13:34:58Z</DateUtc></StartTime><FrequencyChanges><FrequencyChange><Frequency dt:dt=""r8"">10000000</Frequency><Timestamp dt:dt=""r8"">2537617845634</Timestamp><Current dt:dt=""r8"">0</Current><DateUtc dt:dt=""string"">2024-11-03T13:34:58Z</DateUtc></FrequencyChange></FrequencyChanges></Clock>\n",3.0.3.43,3.0.3.60,3.0.3.60,Full,1.0.0.8,Keyboard,Keyboard
Proc4,,List12,,,,,,,,437,3,375,375,Keyboard,602,3,0,,62,,,,,,,,,,,,,,,,,,,,,,,,3,1,3,,,,,,,,,,,,,,,,DelayDiscountingTitrated,11-03-2024,08:34:59,11/3/2024 1:34:59 PM,2094,1,16,DelayDiscountingTitrated-2094-1,-705265510,1,75.003,"<?xml version=""1.0""?>\n<Clock xmlns:dt=""urn:schemas-microsoft-com:datatypes""><Description dt:dt=""string"">E-Prime Primary Realtime Clock</Description><StartTime><Timestamp dt:dt=""int"">0</Timestamp><DateUtc dt:dt=""string"">2024-11-03T13:34:58Z</DateUtc></StartTime><FrequencyChanges><FrequencyChange><Frequency dt:dt=""r8"">10000000</Frequency><Timestamp dt:dt=""r8"">2537617845634</Timestamp><Current dt:dt=""r8"">0</Current><DateUtc dt:dt=""string"">2024-11-03T13:34:58Z</DateUtc></FrequencyChange></FrequencyChanges></Clock>\n",3.0.3.43,3.0.3.60,3.0.3.60,Full,1.0.0.8,Keyboard,Keyboard
Proc4,,List12,,,,,,,,406,1,437,437,Keyboard,1103,1,0,,31,,,,,,,,,,,,,,,,,,,,,,,,4,1,4,,,,,,,,,,,,,,,,DelayDiscountingTitrated,11-03-2024,08:34:59,11/3/2024 1:34:59 PM,2094,1,16,DelayDiscountingTitrated-2094-1,-705265510,1,75.003,"<?xml version=""1.0""?>\n<Clock xmlns:dt=""urn:schemas-microsoft-com:datatypes""><Description dt:dt=""string"">E-Prime Primary Realtime Clock</Description><StartTime><Timestamp dt:dt=""int"">0</Timestamp><DateUtc dt:dt=""string"">2024-11-03T13:34:58Z</DateUtc></StartTime><FrequencyChanges><FrequencyChange><Frequency dt:dt=""r8"">10000000</Frequency><Timestamp dt:dt=""r8"">2537617845634</Timestamp><Current dt:dt=""r8"">0</Current><DateUtc dt:dt=""string"">2024-11-03T13:34:58Z</DateUtc></FrequencyChange></FrequencyChanges></Clock>\n",3.0.3.43,3.0.3.60,3.0.3.60,Full,1.0.0.8,Keyboard,Keyboard
Proc4,,List12,,,,,,,,390,1,406,406,Keyboard,1373,1,0,,16,,,,,,,,,,,,,,,,,,,,,,,,5,1,5,,,,,,,,,,,,,,,,DelayDiscountingTitrated,11-03-2024,08:34:59,11/3/2024 1:34:59 PM,2094,1,16,DelayDiscountingTitrated-2094-1,-705265510,1,75.003,"<?xml version=""1.0""?>\n<Clock xmlns:dt=""urn:schemas-microsoft-com:datatypes""><Description dt:dt=""string"">E-Prime Primary Realtime Clock</Description><StartTime><Timestamp dt:dt=""int"">0</Timestamp><DateUtc dt:dt=""string"">2024-11-03T13:34:58Z</DateUtc></StartTime><FrequencyChanges><FrequencyChange><Frequency dt:dt=""r8"">10000000</Frequency><Timestamp dt:dt=""r8"">2537617845634</Timestamp><Current dt:dt=""r8"">0</Current><DateUtc dt:dt=""string"">2024-11-03T13:34:58Z</DateUtc></FrequencyChange></FrequencyChanges></Clock>\n",3.0.3.43,3.0.3.60,3.0.3.60,Full,1.0.0.8,Keyboard,Keyboard
Proc4,,List12,,,,,,,,398,3,390,390,Keyboard,1183,3,0,,8,,,,,,,,,,,,,,,,,,,,,,,,6,1,6,,,,,,,,,,,,,,,,DelayDiscountingTitrated,11-03-2024,08:34:59,11/3/2024 1:34:59 PM,2094,1,16,DelayDiscountingTitrated-2094-1,-705265510,1,75.003,"<?xml version=""1.0""?>\n<Clock xmlns:dt=""urn:schemas-microsoft-com:datatypes""><Description dt:dt=""string"">E-Prime Primary Realtime Clock</Description><StartTime><Timestamp dt:dt=""int"">0</Timestamp><DateUtc dt:dt=""string"">2024-11-03T13:34:58Z</DateUtc></StartTime><FrequencyChanges><FrequencyChange><Frequency dt:dt=""r8"">10000000</Frequency><Timestamp dt:dt=""r8"">2537617845634</Timestamp><Current dt:dt=""r8"">0</Current><DateUtc dt:dt=""string"">2024-11-03T13:34:58Z</DateUtc></FrequencyChange></FrequencyChanges></Clock>\n",3.0.3.43,3.0.3.60,3.0.3.60,Full,1.0.0.8,Keyboard,Keyboard
Proc4,,List12,,,,,,,,402,3,398,398,Keyboard,1141,3,0,,4,,,,,,,,,,,,,,,,,,,,,,,,7,1,7,,,,,,,,,,,,,,,,DelayDiscountingTitrated,11-03-2024,08:34:59,11/3/2024 1:34:59 PM,2094,1,16,DelayDiscountingTitrated-2094-1,-705265510,1,75.003,"<?xml version=""1.0""?>\n<Clock xmlns:dt=""urn:schemas-microsoft-com:datatypes""><Description dt:dt=""string"">E-Prime Primary Realtime Clock</Description><StartTime><Timestamp dt:dt=""int"">0</Timestamp><DateUtc dt:dt=""string"">2024-11-03T13:34:58Z</DateUtc></StartTime><FrequencyChanges><FrequencyChange><Frequency dt:dt=""r8"">10000000</Frequency><Timestamp dt:dt=""r8"">2537617845634</Timestamp><Current dt:dt=""r8"">0</Current><DateUtc dt:dt=""string"">2024-11-03T13:34:58Z</DateUtc></FrequencyChange></FrequencyChanges></Clock>\n",3.0.3.43,3.0.3.60,3.0.3.60,Full,1.0.0.8,Keyboard,Keyboard
Proc4,,List12,,,,,,,,400,1,402,402,Keyboard,845,1,0,,2,,,,,,,,,,,,,,,,,,,,,,,,8,1,8,,,,,,,,,,,,,,,,DelayDiscountingTitrated,11-03-2024,08:34:59,11/3/2024 1:34:59 PM,2094,1,16,DelayDiscountingTitrated-2094-1,-705265510,1,75.003,"<?xml version=""1.0""?>\n<Clock xmlns:dt=""urn:schemas-microsoft-com:datatypes""><Description dt:dt=""string"">E-Prime Primary Realtime Clock</Description><StartTime><Timestamp dt:dt=""int"">0</Timestamp><DateUtc dt:dt=""string"">2024-11-03T13:34:58Z</DateUtc></StartTime><FrequencyChanges><FrequencyChange><Frequency dt:dt=""r8"">10000000</Frequency><Timestamp dt:dt=""r8"">2537617845634</Timestamp><Current dt:dt=""r8"">0</Current><DateUtc dt:dt=""string"">2024-11-03T13:34:58Z</DateUtc></FrequencyChange></FrequencyChanges></Clock>\n",3.0.3.43,3.0.3.60,3.0.3.60,Full,1.0.0.8,Keyboard,Keyboard
Proc4,,List12,,,,,,,,399,1,400,400,Keyboard,1141,1,0,,1,,,,,,,,,,,,,,,,,,,,,,,,9,1,9,,,,,,,,,,,,,,,,DelayDiscountingTitrated,11-03-2024,08:34:59,11/3/2024 1:34:59 PM,2094,1,16,DelayDiscountingTitrated-2094-1,-705265510,1,75.003,"<?xml version=""1.0""?>\n<Clock xmlns:dt=""urn:schemas-microsoft-com:datatypes""><Description dt:dt=""string"">E-Prime Primary Realtime Clock</Description><StartTime><Timestamp dt:dt=""int"">0</Timestamp><DateUtc dt:dt=""string"">2024-11-03T13:34:58Z</DateUtc></StartTime><FrequencyChanges><FrequencyChange><Frequency dt:dt=""r8"">10000000</Frequency><Timestamp dt:dt=""r8"">2537617845634</Timestamp><Current dt:dt=""r8"">0</Current><DateUtc dt:dt=""string"">2024-11-03T13:34:58Z</DateUtc></FrequencyChange></FrequencyChanges></Clock>\n",3.0.3.43,3.0.3.60,3.0.3.60,Full,1.0.0.8,Keyboard,Keyboard
Proc4,,List12,,,,,,,,399,3,400,399,Keyboard,1149,3,0,,,,,,,,,,,,,,,,,,,,,,,,,,10,1,10,,,,,,,,,,,,,,,,DelayDiscountingTitrated,11-03-2024,08:34:59,11/3/2024 1:34:59 PM,2094,1,16,DelayDiscountingTitrated-2094-1,-705265510,1,75.003,"<?xml version=""1.0""?>\n<Clock xmlns:dt=""urn:schemas-microsoft-com:datatypes""><Description dt:dt=""string"">E-Prime Primary Realtime Clock</Description><StartTime><Timestamp dt:dt=""int"">0</Timestamp><DateUtc dt:dt=""string"">2024-11-03T13:34:58Z</DateUtc></StartTime><FrequencyChanges><FrequencyChange><Frequency dt:dt=""r8"">10000000</Frequency><Timestamp dt:dt=""r8"">2537617845634</Timestamp><Current dt:dt=""r8"">0</Current><DateUtc dt:dt=""string"">2024-11-03T13:34:58Z</DateUtc></FrequencyChange></FrequencyChanges></Clock>\n",3.0.3.43,3.0.3.60,3.0.3.60,Full,1.0.0.8,Keyboard,Keyboard
discount4,,List7,,,,,,,,,,,,,,,,,,500,5 years,1825,,,,,,,,,,,,,,,,,,,,,,,,2,1,1,,,,,,,,,,,,,DelayDiscountingTitrated,11-03-2024,08:34:59,11/3/2024 1:34:59 PM,2094,1,16,DelayDiscountingTitrated-2094-1,-705265510,1,75.003,"<?xml version=""1.0""?>\n<Clock xmlns:dt=""urn:schemas-microsoft-com:datatypes""><Description dt:dt=""string"">E-Prime Primary Realtime Clock</Description><StartTime><Timestamp dt:dt=""int"">0</Timestamp><DateUtc dt:dt=""string"">2024-11-03T13:34:58Z</DateUtc></StartTime><FrequencyChanges><FrequencyChange><Frequency dt:dt=""r8"">10000000</Frequency><Timestamp dt:dt=""r8"">2537617845634</Timestamp><Current dt:dt=""r8"">0</Current><DateUtc dt:dt=""string"">2024-11-03T13:34:58Z</DateUtc></FrequencyChange></FrequencyChanges></Clock>\n",3.0.3.43,3.0.3.60,3.0.3.60,Full,1.0.0.8,Keyboard,Keyboard
fiveyearproc,,List1,,,,,,,,,,,,,,,,,,,,,,,,5,1,4,4,Keyboard,,,,,,,,,,,,,,,,,,,,,,,,,,,,,,,DelayDiscountingTitrated,11-03-2024,08:34:59,11/3/2024 1:34:59 PM,2094,1,16,DelayDiscountingTitrated-2094-1,-705265510,1,75.003,"<?xml version=""1.0""?>\n<Clock xmlns:dt=""urn:schemas-microsoft-com:datatypes""><Description dt:dt=""string"">E-Prime Primary Realtime Clock</Description><StartTime><Timestamp dt:dt=""int"">0</Timestamp><DateUtc dt:dt=""string"">2024-11-03T13:34:58Z</DateUtc></StartTime><FrequencyChanges><FrequencyChange><Frequency dt:dt=""r8"">10000000</Frequency><Timestamp dt:dt=""r8"">2537617845634</Timestamp><Current dt:dt=""r8"">0</Current><DateUtc dt:dt=""string"">2024-11-03T13:34:58Z</DateUtc></FrequencyChange></FrequencyChanges></Clock>\n",3.0.3.43,3.0.3.60,3.0.3.60,Full,1.0.0.8,Keyboard,Keyboard
TrialProcInit,,List2,,,Keyboard,3464,3,0,,750,3,500,,,,,,,,,,,,,,,,,,,,,,,,,,,,,,,,,,,,,1,1,1,,,,,,,,,,DelayDiscountingTitrated,11-03-2024,08:34:59,11/3/2024 1:34:59 PM,2094,1,16,DelayDiscountingTitrated-2094-1,-705265510,1,75.003,"<?xml version=""1.0""?>\n<Clock xmlns:dt=""urn:schemas-microsoft-com:datatypes""><Description dt:dt=""string"">E-Prime Primary Realtime Clock</Description><StartTime><Timestamp dt:dt=""int"">0</Timestamp><DateUtc dt:dt=""string"">2024-11-03T13:34:58Z</DateUtc></StartTime><FrequencyChanges><FrequencyChange><Frequency dt:dt=""r8"">10000000</Frequency><Timestamp dt:dt=""r8"">2537617845634</Timestamp><Current dt:dt=""r8"">0</Current><DateUtc dt:dt=""string"">2024-11-03T13:34:58Z</DateUtc></FrequencyChange></FrequencyChanges></Clock>\n",3.0.3.43,3.0.3.60,3.0.3.60,Full,1.0.0.8,Keyboard,Keyboard
TrialProc,,List2,,,,,,,,875,3,750,750,Keyboard,666,3,0,,125,,,,,,,,,,,,,,,,,,,,,,,,,,,,,,2,1,2,,,,,,,,,,DelayDiscountingTitrated,11-03-2024,08:34:59,11/3/2024 1:34:59 PM,2094,1,16,DelayDiscountingTitrated-2094-1,-705265510,1,75.003,"<?xml version=""1.0""?>\n<Clock xmlns:dt=""urn:schemas-microsoft-com:datatypes""><Description dt:dt=""string"">E-Prime Primary Realtime Clock</Description><StartTime><Timestamp dt:dt=""int"">0</Timestamp><DateUtc dt:dt=""string"">2024-11-03T13:34:58Z</DateUtc></StartTime><FrequencyChanges><FrequencyChange><Frequency dt:dt=""r8"">10000000</Frequency><Timestamp dt:dt=""r8"">2537617845634</Timestamp><Current dt:dt=""r8"">0</Current><DateUtc dt:dt=""string"">2024-11-03T13:34:58Z</DateUtc></FrequencyChange></FrequencyChanges></Clock>\n",3.0.3.43,3.0.3.60,3.0.3.60,Full,1.0.0.8,Keyboard,Keyboard
TrialProc,,List2,,,,,,,,937,3,875,875,Keyboard,874,3,0,,62,,,,,,,,,,,,,,,,,,,,,,,,,,,,,,3,1,3,,,,,,,,,,DelayDiscountingTitrated,11-03-2024,08:34:59,11/3/2024 1:34:59 PM,2094,1,16,DelayDiscountingTitrated-2094-1,-705265510,1,75.003,"<?xml version=""1.0""?>\n<Clock xmlns:dt=""urn:schemas-microsoft-com:datatypes""><Description dt:dt=""string"">E-Prime Primary Realtime Clock</Description><StartTime><Timestamp dt:dt=""int"">0</Timestamp><DateUtc dt:dt=""string"">2024-11-03T13:34:58Z</DateUtc></StartTime><FrequencyChanges><FrequencyChange><Frequency dt:dt=""r8"">10000000</Frequency><Timestamp dt:dt=""r8"">2537617845634</Timestamp><Current dt:dt=""r8"">0</Current><DateUtc dt:dt=""string"">2024-11-03T13:34:58Z</DateUtc></FrequencyChange></FrequencyChanges></Clock>\n",3.0.3.43,3.0.3.60,3.0.3.60,Full,1.0.0.8,Keyboard,Keyboard
TrialProc,,List2,,,,,,,,969,3,937,937,Keyboard,1452,3,0,,32,,,,,,,,,,,,,,,,,,,,,,,,,,,,,,4,1,4,,,,,,,,,,DelayDiscountingTitrated,11-03-2024,08:34:59,11/3/2024 1:34:59 PM,2094,1,16,DelayDiscountingTitrated-2094-1,-705265510,1,75.003,"<?xml version=""1.0""?>\n<Clock xmlns:dt=""urn:schemas-microsoft-com:datatypes""><Description dt:dt=""string"">E-Prime Primary Realtime Clock</Description><StartTime><Timestamp dt:dt=""int"">0</Timestamp><DateUtc dt:dt=""string"">2024-11-03T13:34:58Z</DateUtc></StartTime><FrequencyChanges><FrequencyChange><Frequency dt:dt=""r8"">10000000</Frequency><Timestamp dt:dt=""r8"">2537617845634</Timestamp><Current dt:dt=""r8"">0</Current><DateUtc dt:dt=""string"">2024-11-03T13:34:58Z</DateUtc></FrequencyChange></FrequencyChanges></Clock>\n",3.0.3.43,3.0.3.60,3.0.3.60,Full,1.0.0.8,Keyboard,Keyboard
TrialProc,,List2,,,,,,,,985,3,969,969,Keyboard,2065,3,0,,16,,,,,,,,,,,,,,,,,,,,,,,,,,,,,,5,1,5,,,,,,,,,,DelayDiscountingTitrated,11-03-2024,08:34:59,11/3/2024 1:34:59 PM,2094,1,16,DelayDiscountingTitrated-2094-1,-705265510,1,75.003,"<?xml version=""1.0""?>\n<Clock xmlns:dt=""urn:schemas-microsoft-com:datatypes""><Description dt:dt=""string"">E-Prime Primary Realtime Clock</Description><StartTime><Timestamp dt:dt=""int"">0</Timestamp><DateUtc dt:dt=""string"">2024-11-03T13:34:58Z</DateUtc></StartTime><FrequencyChanges><FrequencyChange><Frequency dt:dt=""r8"">10000000</Frequency><Timestamp dt:dt=""r8"">2537617845634</Timestamp><Current dt:dt=""r8"">0</Current><DateUtc dt:dt=""string"">2024-11-03T13:34:58Z</DateUtc></FrequencyChange></FrequencyChanges></Clock>\n",3.0.3.43,3.0.3.60,3.0.3.60,Full,1.0.0.8,Keyboard,Keyboard
TrialProc,,List2,,,,,,,,993,3,985,985,Keyboard,1195,3,0,,8,,,,,,,,,,,,,,,,,,,,,,,,,,,,,,6,1,6,,,,,,,,,,DelayDiscountingTitrated,11-03-2024,08:34:59,11/3/2024 1:34:59 PM,2094,1,16,DelayDiscountingTitrated-2094-1,-705265510,1,75.003,"<?xml version=""1.0""?>\n<Clock xmlns:dt=""urn:schemas-microsoft-com:datatypes""><Description dt:dt=""string"">E-Prime Primary Realtime Clock</Description><StartTime><Timestamp dt:dt=""int"">0</Timestamp><DateUtc dt:dt=""string"">2024-11-03T13:34:58Z</DateUtc></StartTime><FrequencyChanges><FrequencyChange><Frequency dt:dt=""r8"">10000000</Frequency><Timestamp dt:dt=""r8"">2537617845634</Timestamp><Current dt:dt=""r8"">0</Current><DateUtc dt:dt=""string"">2024-11-03T13:34:58Z</DateUtc></FrequencyChange></FrequencyChanges></Clock>\n",3.0.3.43,3.0.3.60,3.0.3.60,Full,1.0.0.8,Keyboard,Keyboard
TrialProc,,List2,,,,,,,,997,3,993,993,Keyboard,1255,3,0,,4,,,,,,,,,,,,,,,,,,,,,,,,,,,,,,7,1,7,,,,,,,,,,DelayDiscountingTitrated,11-03-2024,08:34:59,11/3/2024 1:34:59 PM,2094,1,16,DelayDiscountingTitrated-2094-1,-705265510,1,75.003,"<?xml version=""1.0""?>\n<Clock xmlns:dt=""urn:schemas-microsoft-com:datatypes""><Description dt:dt=""string"">E-Prime Primary Realtime Clock</Description><StartTime><Timestamp dt:dt=""int"">0</Timestamp><DateUtc dt:dt=""string"">2024-11-03T13:34:58Z</DateUtc></StartTime><FrequencyChanges><FrequencyChange><Frequency dt:dt=""r8"">10000000</Frequency><Timestamp dt:dt=""r8"">2537617845634</Timestamp><Current dt:dt=""r8"">0</Current><DateUtc dt:dt=""string"">2024-11-03T13:34:58Z</DateUtc></FrequencyChange></FrequencyChanges></Clock>\n",3.0.3.43,3.0.3.60,3.0.3.60,Full,1.0.0.8,Keyboard,Keyboard
TrialProc,,List2,,,,,,,,999,3,997,997,Keyboard,1553,3,0,,2,,,,,,,,,,,,,,,,,,,,,,,,,,,,,,8,1,8,,,,,,,,,,DelayDiscountingTitrated,11-03-2024,08:34:59,11/3/2024 1:34:59 PM,2094,1,16,DelayDiscountingTitrated-2094-1,-705265510,1,75.003,"<?xml version=""1.0""?>\n<Clock xmlns:dt=""urn:schemas-microsoft-com:datatypes""><Description dt:dt=""string"">E-Prime Primary Realtime Clock</Description><StartTime><Timestamp dt:dt=""int"">0</Timestamp><DateUtc dt:dt=""string"">2024-11-03T13:34:58Z</DateUtc></StartTime><FrequencyChanges><FrequencyChange><Frequency dt:dt=""r8"">10000000</Frequency><Timestamp dt:dt=""r8"">2537617845634</Timestamp><Current dt:dt=""r8"">0</Current><DateUtc dt:dt=""string"">2024-11-03T13:34:58Z</DateUtc></FrequencyChange></FrequencyChanges></Clock>\n",3.0.3.43,3.0.3.60,3.0.3.60,Full,1.0.0.8,Keyboard,Keyboard
TrialProc,,List2,,,,,,,,999,3,,999,Keyboard,1407,3,0,,,,,,,,,,,,,,,,,,,,,,,,,,,,,,,,9,1,9,,,,,,,,,,DelayDiscountingTitrated,11-03-2024,08:34:59,11/3/2024 1:34:59 PM,2094,1,16,DelayDiscountingTitrated-2094-1,-705265510,1,75.003,"<?xml version=""1.0""?>\n<Clock xmlns:dt=""urn:schemas-microsoft-com:datatypes""><Description dt:dt=""string"">E-Prime Primary Realtime Clock</Description><StartTime><Timestamp dt:dt=""int"">0</Timestamp><DateUtc dt:dt=""string"">2024-11-03T13:34:58Z</DateUtc></StartTime><FrequencyChanges><FrequencyChange><Frequency dt:dt=""r8"">10000000</Frequency><Timestamp dt:dt=""r8"">2537617845634</Timestamp><Current dt:dt=""r8"">0</Current><DateUtc dt:dt=""string"">2024-11-03T13:34:58Z</DateUtc></FrequencyChange></FrequencyChanges></Clock>\n",3.0.3.43,3.0.3.60,3.0.3.60,Full,1.0.0.8,Keyboard,Keyboard
discount,,List3,,,,,,,,,,,,,,,,,,500,1 week,7,,,,,,,,,,,,,,,,,,,,,,,,,,,,,,2,1,1,,,,,,,DelayDiscountingTitrated,11-03-2024,08:34:59,11/3/2024 1:34:59 PM,2094,1,16,DelayDiscountingTitrated-2094-1,-705265510,1,75.003,"<?xml version=""1.0""?>\n<Clock xmlns:dt=""urn:schemas-microsoft-com:datatypes""><Description dt:dt=""string"">E-Prime Primary Realtime Clock</Description><StartTime><Timestamp dt:dt=""int"">0</Timestamp><DateUtc dt:dt=""string"">2024-11-03T13:34:58Z</DateUtc></StartTime><FrequencyChanges><FrequencyChange><Frequency dt:dt=""r8"">10000000</Frequency><Timestamp dt:dt=""r8"">2537617845634</Timestamp><Current dt:dt=""r8"">0</Current><DateUtc dt:dt=""string"">2024-11-03T13:34:58Z</DateUtc></FrequencyChange></FrequencyChanges></Clock>\n",3.0.3.43,3.0.3.60,3.0.3.60,Full,1.0.0.8,Keyboard,Keyboard
onewkproc,,List1,,,,,,,,,,,,,,,,,,,,,,,,1,1,5,5,Keyboard,,,,,,,,,,,,,,,,,,,,,,,,,,,,,,,DelayDiscountingTitrated,11-03-2024,08:34:59,11/3/2024 1:34:59 PM,2094,1,16,DelayDiscountingTitrated-2094-1,-705265510,1,75.003,"<?xml version=""1.0""?>\n<Clock xmlns:dt=""urn:schemas-microsoft-com:datatypes""><Description dt:dt=""string"">E-Prime Primary Realtime Clock</Description><StartTime><Timestamp dt:dt=""int"">0</Timestamp><DateUtc dt:dt=""string"">2024-11-03T13:34:58Z</DateUtc></StartTime><FrequencyChanges><FrequencyChange><Frequency dt:dt=""r8"">10000000</Frequency><Timestamp dt:dt=""r8"">2537617845634</Timestamp><Current dt:dt=""r8"">0</Current><DateUtc dt:dt=""string"">2024-11-03T13:34:58Z</DateUtc></FrequencyChange></FrequencyChanges></Clock>\n",3.0.3.43,3.0.3.60,3.0.3.60,Full,1.0.0.8,Keyboard,Keyboard
Init3,,List11,,,Keyboard,5604,3,0,,900,3,800,,,,,,,,,,,,,,,,,,,,,,,,,,,,,,,,,,,,,,,,,,,1,1,1,,,,DelayDiscountingTitrated,11-03-2024,08:34:59,11/3/2024 1:34:59 PM,2094,1,16,DelayDiscountingTitrated-2094-1,-705265510,1,75.003,"<?xml version=""1.0""?>\n<Clock xmlns:dt=""urn:schemas-microsoft-com:datatypes""><Description dt:dt=""string"">E-Prime Primary Realtime Clock</Description><StartTime><Timestamp dt:dt=""int"">0</Timestamp><DateUtc dt:dt=""string"">2024-11-03T13:34:58Z</DateUtc></StartTime><FrequencyChanges><FrequencyChange><Frequency dt:dt=""r8"">10000000</Frequency><Timestamp dt:dt=""r8"">2537617845634</Timestamp><Current dt:dt=""r8"">0</Current><DateUtc dt:dt=""string"">2024-11-03T13:34:58Z</DateUtc></FrequencyChange></FrequencyChanges></Clock>\n",3.0.3.43,3.0.3.60,3.0.3.60,Full,1.0.0.8,Keyboard,Keyboard
Proc3,,List11,,,,,,,,950,3,900,900,Keyboard,1063,3,0,,50,,,,,,,,,,,,,,,,,,,,,,,,,,,,,,,,,,,,2,1,2,,,,DelayDiscountingTitrated,11-03-2024,08:34:59,11/3/2024 1:34:59 PM,2094,1,16,DelayDiscountingTitrated-2094-1,-705265510,1,75.003,"<?xml version=""1.0""?>\n<Clock xmlns:dt=""urn:schemas-microsoft-com:datatypes""><Description dt:dt=""string"">E-Prime Primary Realtime Clock</Description><StartTime><Timestamp dt:dt=""int"">0</Timestamp><DateUtc dt:dt=""string"">2024-11-03T13:34:58Z</DateUtc></StartTime><FrequencyChanges><FrequencyChange><Frequency dt:dt=""r8"">10000000</Frequency><Timestamp dt:dt=""r8"">2537617845634</Timestamp><Current dt:dt=""r8"">0</Current><DateUtc dt:dt=""string"">2024-11-03T13:34:58Z</DateUtc></FrequencyChange></FrequencyChanges></Clock>\n",3.0.3.43,3.0.3.60,3.0.3.60,Full,1.0.0.8,Keyboard,Keyboard
Proc3,,List11,,,,,,,,975,3,950,950,Keyboard,1412,3,0,,25,,,,,,,,,,,,,,,,,,,,,,,,,,,,,,,,,,,,3,1,3,,,,DelayDiscountingTitrated,11-03-2024,08:34:59,11/3/2024 1:34:59 PM,2094,1,16,DelayDiscountingTitrated-2094-1,-705265510,1,75.003,"<?xml version=""1.0""?>\n<Clock xmlns:dt=""urn:schemas-microsoft-com:datatypes""><Description dt:dt=""string"">E-Prime Primary Realtime Clock</Description><StartTime><Timestamp dt:dt=""int"">0</Timestamp><DateUtc dt:dt=""string"">2024-11-03T13:34:58Z</DateUtc></StartTime><FrequencyChanges><FrequencyChange><Frequency dt:dt=""r8"">10000000</Frequency><Timestamp dt:dt=""r8"">2537617845634</Timestamp><Current dt:dt=""r8"">0</Current><DateUtc dt:dt=""string"">2024-11-03T13:34:58Z</DateUtc></FrequencyChange></FrequencyChanges></Clock>\n",3.0.3.43,3.0.3.60,3.0.3.60,Full,1.0.0.8,Keyboard,Keyboard
Proc3,,List11,,,,,,,,987,3,975,975,Keyboard,1228,3,0,,12,,,,,,,,,,,,,,,,,,,,,,,,,,,,,,,,,,,,4,1,4,,,,DelayDiscountingTitrated,11-03-2024,08:34:59,11/3/2024 1:34:59 PM,2094,1,16,DelayDiscountingTitrated-2094-1,-705265510,1,75.003,"<?xml version=""1.0""?>\n<Clock xmlns:dt=""urn:schemas-microsoft-com:datatypes""><Description dt:dt=""string"">E-Prime Primary Realtime Clock</Description><StartTime><Timestamp dt:dt=""int"">0</Timestamp><DateUtc dt:dt=""string"">2024-11-03T13:34:58Z</DateUtc></StartTime><FrequencyChanges><FrequencyChange><Frequency dt:dt=""r8"">10000000</Frequency><Timestamp dt:dt=""r8"">2537617845634</Timestamp><Current dt:dt=""r8"">0</Current><DateUtc dt:dt=""string"">2024-11-03T13:34:58Z</DateUtc></FrequencyChange></FrequencyChanges></Clock>\n",3.0.3.43,3.0.3.60,3.0.3.60,Full,1.0.0.8,Keyboard,Keyboard
Proc3,,List11,,,,,,,,993,3,987,987,Keyboard,1358,3,0,,6,,,,,,,,,,,,,,,,,,,,,,,,,,,,,,,,,,,,5,1,5,,,,DelayDiscountingTitrated,11-03-2024,08:34:59,11/3/2024 1:34:59 PM,2094,1,16,DelayDiscountingTitrated-2094-1,-705265510,1,75.003,"<?xml version=""1.0""?>\n<Clock xmlns:dt=""urn:schemas-microsoft-com:datatypes""><Description dt:dt=""string"">E-Prime Primary Realtime Clock</Description><StartTime><Timestamp dt:dt=""int"">0</Timestamp><DateUtc dt:dt=""string"">2024-11-03T13:34:58Z</DateUtc></StartTime><FrequencyChanges><FrequencyChange><Frequency dt:dt=""r8"">10000000</Frequency><Timestamp dt:dt=""r8"">2537617845634</Timestamp><Current dt:dt=""r8"">0</Current><DateUtc dt:dt=""string"">2024-11-03T13:34:58Z</DateUtc></FrequencyChange></FrequencyChanges></Clock>\n",3.0.3.43,3.0.3.60,3.0.3.60,Full,1.0.0.8,Keyboard,Keyboard
Proc3,,List11,,,,,,,,997,3,993,993,Keyboard,1162,3,0,,4,,,,,,,,,,,,,,,,,,,,,,,,,,,,,,,,,,,,6,1,6,,,,DelayDiscountingTitrated,11-03-2024,08:34:59,11/3/2024 1:34:59 PM,2094,1,16,DelayDiscountingTitrated-2094-1,-705265510,1,75.003,"<?xml version=""1.0""?>\n<Clock xmlns:dt=""urn:schemas-microsoft-com:datatypes""><Description dt:dt=""string"">E-Prime Primary Realtime Clock</Description><StartTime><Timestamp dt:dt=""int"">0</Timestamp><DateUtc dt:dt=""string"">2024-11-03T13:34:58Z</DateUtc></StartTime><FrequencyChanges><FrequencyChange><Frequency dt:dt=""r8"">10000000</Frequency><Timestamp dt:dt=""r8"">2537617845634</Timestamp><Current dt:dt=""r8"">0</Current><DateUtc dt:dt=""string"">2024-11-03T13:34:58Z</DateUtc></FrequencyChange></FrequencyChanges></Clock>\n",3.0.3.43,3.0.3.60,3.0.3.60,Full,1.0.0.8,Keyboard,Keyboard
Proc3,,List11,,,,,,,,999,3,997,997,Keyboard,1544,3,0,,2,,,,,,,,,,,,,,,,,,,,,,,,,,,,,,,,,,,,7,1,7,,,,DelayDiscountingTitrated,11-03-2024,08:34:59,11/3/2024 1:34:59 PM,2094,1,16,DelayDiscountingTitrated-2094-1,-705265510,1,75.003,"<?xml version=""1.0""?>\n<Clock xmlns:dt=""urn:schemas-microsoft-com:datatypes""><Description dt:dt=""string"">E-Prime Primary Realtime Clock</Description><StartTime><Timestamp dt:dt=""int"">0</Timestamp><DateUtc dt:dt=""string"">2024-11-03T13:34:58Z</DateUtc></StartTime><FrequencyChanges><FrequencyChange><Frequency dt:dt=""r8"">10000000</Frequency><Timestamp dt:dt=""r8"">2537617845634</Timestamp><Current dt:dt=""r8"">0</Current><DateUtc dt:dt=""string"">2024-11-03T13:34:58Z</DateUtc></FrequencyChange></FrequencyChanges></Clock>\n",3.0.3.43,3.0.3.60,3.0.3.60,Full,1.0.0.8,Keyboard,Keyboard
Proc3,,List11,,,,,,,,999,3,,999,Keyboard,3235,3,0,,,,,,,,,,,,,,,,,,,,,,,,,,,,,,,,,,,,,,8,1,8,,,,DelayDiscountingTitrated,11-03-2024,08:34:59,11/3/2024 1:34:59 PM,2094,1,16,DelayDiscountingTitrated-2094-1,-705265510,1,75.003,"<?xml version=""1.0""?>\n<Clock xmlns:dt=""urn:schemas-microsoft-com:datatypes""><Description dt:dt=""string"">E-Prime Primary Realtime Clock</Description><StartTime><Timestamp dt:dt=""int"">0</Timestamp><DateUtc dt:dt=""string"">2024-11-03T13:34:58Z</DateUtc></StartTime><FrequencyChanges><FrequencyChange><Frequency dt:dt=""r8"">10000000</Frequency><Timestamp dt:dt=""r8"">2537617845634</Timestamp><Current dt:dt=""r8"">0</Current><DateUtc dt:dt=""string"">2024-11-03T13:34:58Z</DateUtc></FrequencyChange></FrequencyChanges></Clock>\n",3.0.3.43,3.0.3.60,3.0.3.60,Full,1.0.0.8,Keyboard,Keyboard
discount3,,List6,,,,,,,,,,,,,,,,,,800,1 year,365,,,,,,,,,,,,,,,,,,,,,,,,,,,,,,,,,,,,3,1,1,DelayDiscountingTitrated,11-03-2024,08:34:59,11/3/2024 1:34:59 PM,2094,1,16,DelayDiscountingTitrated-2094-1,-705265510,1,75.003,"<?xml version=""1.0""?>\n<Clock xmlns:dt=""urn:schemas-microsoft-com:datatypes""><Description dt:dt=""string"">E-Prime Primary Realtime Clock</Description><StartTime><Timestamp dt:dt=""int"">0</Timestamp><DateUtc dt:dt=""string"">2024-11-03T13:34:58Z</DateUtc></StartTime><FrequencyChanges><FrequencyChange><Frequency dt:dt=""r8"">10000000</Frequency><Timestamp dt:dt=""r8"">2537617845634</Timestamp><Current dt:dt=""r8"">0</Current><DateUtc dt:dt=""string"">2024-11-03T13:34:58Z</DateUtc></FrequencyChange></FrequencyChanges></Clock>\n",3.0.3.43,3.0.3.60,3.0.3.60,Full,1.0.0.8,Keyboard,Keyboard
oneyearproc,,List1,,,,,,,,,,,,,,,,,,,,,,,,4,1,6,6,Keyboard,,,,,,,,,,,,,,,,,,,,,,,,,,,,,,,DelayDiscountingTitrated,11-03-2024,08:34:59,11/3/2024 1:34:59 PM,2094,1,16,DelayDiscountingTitrated-2094-1,-705265510,1,75.003,"<?xml version=""1.0""?>\n<Clock xmlns:dt=""urn:schemas-microsoft-com:datatypes""><Description dt:dt=""string"">E-Prime Primary Realtime Clock</Description><StartTime><Timestamp dt:dt=""int"">0</Timestamp><DateUtc dt:dt=""string"">2024-11-03T13:34:58Z</DateUtc></StartTime><FrequencyChanges><FrequencyChange><Frequency dt:dt=""r8"">10000000</Frequency><Timestamp dt:dt=""r8"">2537617845634</Timestamp><Current dt:dt=""r8"">0</Current><DateUtc dt:dt=""string"">2024-11-03T13:34:58Z</DateUtc></FrequencyChange></FrequencyChanges></Clock>\n",3.0.3.43,3.0.3.60,3.0.3.60,Full,1.0.0.8,Keyboard,Keyboard
,,,,,,,,,,,,,,,,,,,,,,,,,,,,,,,,,,,,,,,,,,,,,,,,,,,,,,,,,,,,,DelayDiscountingTitrated,11-03-2024,08:34:59,11/3/2024 1:34:59 PM,2094,1,16,DelayDiscountingTitrated-2094-1,-705265510,1,75.003,"<?xml version=""1.0""?>\n<Clock xmlns:dt=""urn:schemas-microsoft-com:datatypes""><Description dt:dt=""string"">E-Prime Primary Realtime Clock</Description><StartTime><Timestamp dt:dt=""int"">0</Timestamp><DateUtc dt:dt=""string"">2024-11-03T13:34:58Z</DateUtc></StartTime><FrequencyChanges><FrequencyChange><Frequency dt:dt=""r8"">10000000</Frequency><Timestamp dt:dt=""r8"">2537617845634</Timestamp><Current dt:dt=""r8"">0</Current><DateUtc dt:dt=""string"">2024-11-03T13:34:58Z</DateUtc></FrequencyChange></FrequencyChanges></Clock>\n",3.0.3.43,3.0.3.60,3.0.3.60,Full,1.0.0.8,Keyboard,Keyboard
