Procedure,List12,Running,List12.Cycle,List12.Sample,Slide2.DEVICE,Slide2.RT,Slide2.RESP,Slide4.RT,Slide4.RESP,immed3,respprev,prevalue,imstring,Slide1.DEVICE,Slide1.RT,Slide1.RESP,Slide5.RT,Slide5.RESP,immed5,immed,delaypd,timedays,List7,List7.Cycle,List7.Sample,List1,List1.Cycle,List1.Sample,roundnumber,TextDisplay11.DEVICE,List11,List11.Cycle,List11.Sample,List6,List6.Cycle,List6.Sample,List10,List10.Cycle,List10.Sample,List5,List5.Cycle,List5.Sample,List2,List2.Cycle,List2.Sample,List3,List3.Cycle,List3.Sample,List9,List9.Cycle,List9.Sample,List4,List4.Cycle,List4.Sample,List13,List13.Cycle,List13.Sample,List8,List8.Cycle,List8.Sample,Experiment,SessionDate,SessionTime,SessionStartDateTimeUtc,Subject,Session,Age,DataFile.Basename,RandomSeed,Group,Display.RefreshRate,Clock.Information,StudioVersion,RuntimeVersion,RuntimeVersionExpected,RuntimeCapabilities,ExperimentVersion,TextDisplay14.DEVICE,Slide3.DEVICE
Init4,1,List12,1,1,Keyboard,1097,1,0,,400,1,800,,,,,,,,,,,,,,,,,,,,,,,,,,,,,,,,,,,,,,,,,,,,,,,,,DelayDiscountingTitrated,10-01-2024,08:51:35,,2072,1,16,DelayDiscountingTitrated-2072-1,-983366129,1,75.006,"<?xml version=""1.0""?>\n<Clock xmlns:dt=""urn:schemas-microsoft-com:datatypes""><Description dt:dt=""string"">E-Prime Primary Realtime Clock</Description><StartTime><Timestamp dt:dt=""int"">0</Timestamp><DateUtc dt:dt=""string"">2024-10-01T12:51:35Z</DateUtc></StartTime><FrequencyChanges><FrequencyChange><Frequency dt:dt=""r8"">10000000</Frequency><Timestamp dt:dt=""r8"">3130044802267</Timestamp><Current dt:dt=""r8"">0</Current><DateUtc dt:dt=""string"">2024-10-01T12:51:35Z</DateUtc></FrequencyChange></FrequencyChanges></Clock>\n",3.0.3.43,3.0.3.60,3.0.3.60,Full,1.0.0.8,Keyboard,Keyboard
Proc4,2,List12,1,2,,,,,,200,1,400,400,Keyboard,2106,1,0,,200,,,,,,,,,,,,,,,,,,,,,,,,,,,,,,,,,,,,,,,,,,DelayDiscountingTitrated,10-01-2024,08:51:35,,2072,1,16,DelayDiscountingTitrated-2072-1,-983366129,1,75.006,"<?xml version=""1.0""?>\n<Clock xmlns:dt=""urn:schemas-microsoft-com:datatypes""><Description dt:dt=""string"">E-Prime Primary Realtime Clock</Description><StartTime><Timestamp dt:dt=""int"">0</Timestamp><DateUtc dt:dt=""string"">2024-10-01T12:51:35Z</DateUtc></StartTime><FrequencyChanges><FrequencyChange><Frequency dt:dt=""r8"">10000000</Frequency><Timestamp dt:dt=""r8"">3130044802267</Timestamp><Current dt:dt=""r8"">0</Current><DateUtc dt:dt=""string"">2024-10-01T12:51:35Z</DateUtc></FrequencyChange></FrequencyChanges></Clock>\n",3.0.3.43,3.0.3.60,3.0.3.60,Full,1.0.0.8,Keyboard,Keyboard
Proc4,3,List12,1,3,,,,,,300,3,200,200,Keyboard,3381,3,0,,100,,,,,,,,,,,,,,,,,,,,,,,,,,,,,,,,,,,,,,,,,,DelayDiscountingTitrated,10-01-2024,08:51:35,,2072,1,16,DelayDiscountingTitrated-2072-1,-983366129,1,75.006,"<?xml version=""1.0""?>\n<Clock xmlns:dt=""urn:schemas-microsoft-com:datatypes""><Description dt:dt=""string"">E-Prime Primary Realtime Clock</Description><StartTime><Timestamp dt:dt=""int"">0</Timestamp><DateUtc dt:dt=""string"">2024-10-01T12:51:35Z</DateUtc></StartTime><FrequencyChanges><FrequencyChange><Frequency dt:dt=""r8"">10000000</Frequency><Timestamp dt:dt=""r8"">3130044802267</Timestamp><Current dt:dt=""r8"">0</Current><DateUtc dt:dt=""string"">2024-10-01T12:51:35Z</DateUtc></FrequencyChange></FrequencyChanges></Clock>\n",3.0.3.43,3.0.3.60,3.0.3.60,Full,1.0.0.8,Keyboard,Keyboard
Proc4,4,List12,1,4,,,,,,350,3,300,300,Keyboard,2885,3,0,,50,,,,,,,,,,,,,,,,,,,,,,,,,,,,,,,,,,,,,,,,,,DelayDiscountingTitrated,10-01-2024,08:51:35,,2072,1,16,DelayDiscountingTitrated-2072-1,-983366129,1,75.006,"<?xml version=""1.0""?>\n<Clock xmlns:dt=""urn:schemas-microsoft-com:datatypes""><Description dt:dt=""string"">E-Prime Primary Realtime Clock</Description><StartTime><Timestamp dt:dt=""int"">0</Timestamp><DateUtc dt:dt=""string"">2024-10-01T12:51:35Z</DateUtc></StartTime><FrequencyChanges><FrequencyChange><Frequency dt:dt=""r8"">10000000</Frequency><Timestamp dt:dt=""r8"">3130044802267</Timestamp><Current dt:dt=""r8"">0</Current><DateUtc dt:dt=""string"">2024-10-01T12:51:35Z</DateUtc></FrequencyChange></FrequencyChanges></Clock>\n",3.0.3.43,3.0.3.60,3.0.3.60,Full,1.0.0.8,Keyboard,Keyboard
Proc4,5,List12,1,5,,,,,,325,1,350,350,Keyboard,4131,1,0,,25,,,,,,,,,,,,,,,,,,,,,,,,,,,,,,,,,,,,,,,,,,DelayDiscountingTitrated,10-01-2024,08:51:35,,2072,1,16,DelayDiscountingTitrated-2072-1,-983366129,1,75.006,"<?xml version=""1.0""?>\n<Clock xmlns:dt=""urn:schemas-microsoft-com:datatypes""><Description dt:dt=""string"">E-Prime Primary Realtime Clock</Description><StartTime><Timestamp dt:dt=""int"">0</Timestamp><DateUtc dt:dt=""string"">2024-10-01T12:51:35Z</DateUtc></StartTime><FrequencyChanges><FrequencyChange><Frequency dt:dt=""r8"">10000000</Frequency><Timestamp dt:dt=""r8"">3130044802267</Timestamp><Current dt:dt=""r8"">0</Current><DateUtc dt:dt=""string"">2024-10-01T12:51:35Z</DateUtc></FrequencyChange></FrequencyChanges></Clock>\n",3.0.3.43,3.0.3.60,3.0.3.60,Full,1.0.0.8,Keyboard,Keyboard
Proc4,6,List12,1,6,,,,,,313,1,325,325,Keyboard,2775,1,0,,12,,,,,,,,,,,,,,,,,,,,,,,,,,,,,,,,,,,,,,,,,,DelayDiscountingTitrated,10-01-2024,08:51:35,,2072,1,16,DelayDiscountingTitrated-2072-1,-983366129,1,75.006,"<?xml version=""1.0""?>\n<Clock xmlns:dt=""urn:schemas-microsoft-com:datatypes""><Description dt:dt=""string"">E-Prime Primary Realtime Clock</Description><StartTime><Timestamp dt:dt=""int"">0</Timestamp><DateUtc dt:dt=""string"">2024-10-01T12:51:35Z</DateUtc></StartTime><FrequencyChanges><FrequencyChange><Frequency dt:dt=""r8"">10000000</Frequency><Timestamp dt:dt=""r8"">3130044802267</Timestamp><Current dt:dt=""r8"">0</Current><DateUtc dt:dt=""string"">2024-10-01T12:51:35Z</DateUtc></FrequencyChange></FrequencyChanges></Clock>\n",3.0.3.43,3.0.3.60,3.0.3.60,Full,1.0.0.8,Keyboard,Keyboard
Proc4,7,List12,1,7,,,,,,307,1,313,313,Keyboard,1503,1,0,,6,,,,,,,,,,,,,,,,,,,,,,,,,,,,,,,,,,,,,,,,,,DelayDiscountingTitrated,10-01-2024,08:51:35,,2072,1,16,DelayDiscountingTitrated-2072-1,-983366129,1,75.006,"<?xml version=""1.0""?>\n<Clock xmlns:dt=""urn:schemas-microsoft-com:datatypes""><Description dt:dt=""string"">E-Prime Primary Realtime Clock</Description><StartTime><Timestamp dt:dt=""int"">0</Timestamp><DateUtc dt:dt=""string"">2024-10-01T12:51:35Z</DateUtc></StartTime><FrequencyChanges><FrequencyChange><Frequency dt:dt=""r8"">10000000</Frequency><Timestamp dt:dt=""r8"">3130044802267</Timestamp><Current dt:dt=""r8"">0</Current><DateUtc dt:dt=""string"">2024-10-01T12:51:35Z</DateUtc></FrequencyChange></FrequencyChanges></Clock>\n",3.0.3.43,3.0.3.60,3.0.3.60,Full,1.0.0.8,Keyboard,Keyboard
Proc4,8,List12,1,8,,,,,,310,3,307,307,Keyboard,3004,3,0,,3,,,,,,,,,,,,,,,,,,,,,,,,,,,,,,,,,,,,,,,,,,DelayDiscountingTitrated,10-01-2024,08:51:35,,2072,1,16,DelayDiscountingTitrated-2072-1,-983366129,1,75.006,"<?xml version=""1.0""?>\n<Clock xmlns:dt=""urn:schemas-microsoft-com:datatypes""><Description dt:dt=""string"">E-Prime Primary Realtime Clock</Description><StartTime><Timestamp dt:dt=""int"">0</Timestamp><DateUtc dt:dt=""string"">2024-10-01T12:51:35Z</DateUtc></StartTime><FrequencyChanges><FrequencyChange><Frequency dt:dt=""r8"">10000000</Frequency><Timestamp dt:dt=""r8"">3130044802267</Timestamp><Current dt:dt=""r8"">0</Current><DateUtc dt:dt=""string"">2024-10-01T12:51:35Z</DateUtc></FrequencyChange></FrequencyChanges></Clock>\n",3.0.3.43,3.0.3.60,3.0.3.60,Full,1.0.0.8,Keyboard,Keyboard
Proc4,9,List12,1,9,,,,,,312,3,310,310,Keyboard,1240,3,0,,2,,,,,,,,,,,,,,,,,,,,,,,,,,,,,,,,,,,,,,,,,,DelayDiscountingTitrated,10-01-2024,08:51:35,,2072,1,16,DelayDiscountingTitrated-2072-1,-983366129,1,75.006,"<?xml version=""1.0""?>\n<Clock xmlns:dt=""urn:schemas-microsoft-com:datatypes""><Description dt:dt=""string"">E-Prime Primary Realtime Clock</Description><StartTime><Timestamp dt:dt=""int"">0</Timestamp><DateUtc dt:dt=""string"">2024-10-01T12:51:35Z</DateUtc></StartTime><FrequencyChanges><FrequencyChange><Frequency dt:dt=""r8"">10000000</Frequency><Timestamp dt:dt=""r8"">3130044802267</Timestamp><Current dt:dt=""r8"">0</Current><DateUtc dt:dt=""string"">2024-10-01T12:51:35Z</DateUtc></FrequencyChange></FrequencyChanges></Clock>\n",3.0.3.43,3.0.3.60,3.0.3.60,Full,1.0.0.8,Keyboard,Keyboard
Proc4,10,List12,1,10,,,,,,313,3,312,312,Keyboard,932,3,0,,1,,,,,,,,,,,,,,,,,,,,,,,,,,,,,,,,,,,,,,,,,,DelayDiscountingTitrated,10-01-2024,08:51:35,,2072,1,16,DelayDiscountingTitrated-2072-1,-983366129,1,75.006,"<?xml version=""1.0""?>\n<Clock xmlns:dt=""urn:schemas-microsoft-com:datatypes""><Description dt:dt=""string"">E-Prime Primary Realtime Clock</Description><StartTime><Timestamp dt:dt=""int"">0</Timestamp><DateUtc dt:dt=""string"">2024-10-01T12:51:35Z</DateUtc></StartTime><FrequencyChanges><FrequencyChange><Frequency dt:dt=""r8"">10000000</Frequency><Timestamp dt:dt=""r8"">3130044802267</Timestamp><Current dt:dt=""r8"">0</Current><DateUtc dt:dt=""string"">2024-10-01T12:51:35Z</DateUtc></FrequencyChange></FrequencyChanges></Clock>\n",3.0.3.43,3.0.3.60,3.0.3.60,Full,1.0.0.8,Keyboard,Keyboard
Proc4,11,List12,1,11,,,,,,313,1,312,313,Keyboard,850,1,0,,,,,,,,,,,,,,,,,,,,,,,,,,,,,,,,,,,,,,,,,,,,DelayDiscountingTitrated,10-01-2024,08:51:35,,2072,1,16,DelayDiscountingTitrated-2072-1,-983366129,1,75.006,"<?xml version=""1.0""?>\n<Clock xmlns:dt=""urn:schemas-microsoft-com:datatypes""><Description dt:dt=""string"">E-Prime Primary Realtime Clock</Description><StartTime><Timestamp dt:dt=""int"">0</Timestamp><DateUtc dt:dt=""string"">2024-10-01T12:51:35Z</DateUtc></StartTime><FrequencyChanges><FrequencyChange><Frequency dt:dt=""r8"">10000000</Frequency><Timestamp dt:dt=""r8"">3130044802267</Timestamp><Current dt:dt=""r8"">0</Current><DateUtc dt:dt=""string"">2024-10-01T12:51:35Z</DateUtc></FrequencyChange></FrequencyChanges></Clock>\n",3.0.3.43,3.0.3.60,3.0.3.60,Full,1.0.0.8,Keyboard,Keyboard
discount4,,List7,,,,,,,,,,,,,,,,,,800,5 years,1825,3,1,1,,,,,,,,,,,,,,,,,,,,,,,,,,,,,,,,,,,,DelayDiscountingTitrated,10-01-2024,08:51:35,,2072,1,16,DelayDiscountingTitrated-2072-1,-983366129,1,75.006,"<?xml version=""1.0""?>\n<Clock xmlns:dt=""urn:schemas-microsoft-com:datatypes""><Description dt:dt=""string"">E-Prime Primary Realtime Clock</Description><StartTime><Timestamp dt:dt=""int"">0</Timestamp><DateUtc dt:dt=""string"">2024-10-01T12:51:35Z</DateUtc></StartTime><FrequencyChanges><FrequencyChange><Frequency dt:dt=""r8"">10000000</Frequency><Timestamp dt:dt=""r8"">3130044802267</Timestamp><Current dt:dt=""r8"">0</Current><DateUtc dt:dt=""string"">2024-10-01T12:51:35Z</DateUtc></FrequencyChange></FrequencyChanges></Clock>\n",3.0.3.43,3.0.3.60,3.0.3.60,Full,1.0.0.8,Keyboard,Keyboard
fiveyearproc,,List1,,,,,,,,,,,,,,,,,,,,,,,,5,1,1,1,Keyboard,,,,,,,,,,,,,,,,,,,,,,,,,,,,,,,DelayDiscountingTitrated,10-01-2024,08:51:35,,2072,1,16,DelayDiscountingTitrated-2072-1,-983366129,1,75.006,"<?xml version=""1.0""?>\n<Clock xmlns:dt=""urn:schemas-microsoft-com:datatypes""><Description dt:dt=""string"">E-Prime Primary Realtime Clock</Description><StartTime><Timestamp dt:dt=""int"">0</Timestamp><DateUtc dt:dt=""string"">2024-10-01T12:51:35Z</DateUtc></StartTime><FrequencyChanges><FrequencyChange><Frequency dt:dt=""r8"">10000000</Frequency><Timestamp dt:dt=""r8"">3130044802267</Timestamp><Current dt:dt=""r8"">0</Current><DateUtc dt:dt=""string"">2024-10-01T12:51:35Z</DateUtc></FrequencyChange></FrequencyChanges></Clock>\n",3.0.3.43,3.0.3.60,3.0.3.60,Full,1.0.0.8,Keyboard,Keyboard
Init3,,List11,,,Keyboard,2810,1,0,,250,1,500,,,,,,,,,,,,,,,,,,,1,1,1,,,,,,,,,,,,,,,,,,,,,,,,,,,,DelayDiscountingTitrated,10-01-2024,08:51:35,,2072,1,16,DelayDiscountingTitrated-2072-1,-983366129,1,75.006,"<?xml version=""1.0""?>\n<Clock xmlns:dt=""urn:schemas-microsoft-com:datatypes""><Description dt:dt=""string"">E-Prime Primary Realtime Clock</Description><StartTime><Timestamp dt:dt=""int"">0</Timestamp><DateUtc dt:dt=""string"">2024-10-01T12:51:35Z</DateUtc></StartTime><FrequencyChanges><FrequencyChange><Frequency dt:dt=""r8"">10000000</Frequency><Timestamp dt:dt=""r8"">3130044802267</Timestamp><Current dt:dt=""r8"">0</Current><DateUtc dt:dt=""string"">2024-10-01T12:51:35Z</DateUtc></FrequencyChange></FrequencyChanges></Clock>\n",3.0.3.43,3.0.3.60,3.0.3.60,Full,1.0.0.8,Keyboard,Keyboard
Proc3,,List11,,,,,,,,375,3,250,250,Keyboard,971,3,0,,125,,,,,,,,,,,,2,1,2,,,,,,,,,,,,,,,,,,,,,,,,,,,,DelayDiscountingTitrated,10-01-2024,08:51:35,,2072,1,16,DelayDiscountingTitrated-2072-1,-983366129,1,75.006,"<?xml version=""1.0""?>\n<Clock xmlns:dt=""urn:schemas-microsoft-com:datatypes""><Description dt:dt=""string"">E-Prime Primary Realtime Clock</Description><StartTime><Timestamp dt:dt=""int"">0</Timestamp><DateUtc dt:dt=""string"">2024-10-01T12:51:35Z</DateUtc></StartTime><FrequencyChanges><FrequencyChange><Frequency dt:dt=""r8"">10000000</Frequency><Timestamp dt:dt=""r8"">3130044802267</Timestamp><Current dt:dt=""r8"">0</Current><DateUtc dt:dt=""string"">2024-10-01T12:51:35Z</DateUtc></FrequencyChange></FrequencyChanges></Clock>\n",3.0.3.43,3.0.3.60,3.0.3.60,Full,1.0.0.8,Keyboard,Keyboard
Proc3,,List11,,,,,,,,437,3,375,375,Keyboard,1529,3,0,,62,,,,,,,,,,,,3,1,3,,,,,,,,,,,,,,,,,,,,,,,,,,,,DelayDiscountingTitrated,10-01-2024,08:51:35,,2072,1,16,DelayDiscountingTitrated-2072-1,-983366129,1,75.006,"<?xml version=""1.0""?>\n<Clock xmlns:dt=""urn:schemas-microsoft-com:datatypes""><Description dt:dt=""string"">E-Prime Primary Realtime Clock</Description><StartTime><Timestamp dt:dt=""int"">0</Timestamp><DateUtc dt:dt=""string"">2024-10-01T12:51:35Z</DateUtc></StartTime><FrequencyChanges><FrequencyChange><Frequency dt:dt=""r8"">10000000</Frequency><Timestamp dt:dt=""r8"">3130044802267</Timestamp><Current dt:dt=""r8"">0</Current><DateUtc dt:dt=""string"">2024-10-01T12:51:35Z</DateUtc></FrequencyChange></FrequencyChanges></Clock>\n",3.0.3.43,3.0.3.60,3.0.3.60,Full,1.0.0.8,Keyboard,Keyboard
Proc3,,List11,,,,,,,,468,3,437,437,Keyboard,1089,3,0,,31,,,,,,,,,,,,4,1,4,,,,,,,,,,,,,,,,,,,,,,,,,,,,DelayDiscountingTitrated,10-01-2024,08:51:35,,2072,1,16,DelayDiscountingTitrated-2072-1,-983366129,1,75.006,"<?xml version=""1.0""?>\n<Clock xmlns:dt=""urn:schemas-microsoft-com:datatypes""><Description dt:dt=""string"">E-Prime Primary Realtime Clock</Description><StartTime><Timestamp dt:dt=""int"">0</Timestamp><DateUtc dt:dt=""string"">2024-10-01T12:51:35Z</DateUtc></StartTime><FrequencyChanges><FrequencyChange><Frequency dt:dt=""r8"">10000000</Frequency><Timestamp dt:dt=""r8"">3130044802267</Timestamp><Current dt:dt=""r8"">0</Current><DateUtc dt:dt=""string"">2024-10-01T12:51:35Z</DateUtc></FrequencyChange></FrequencyChanges></Clock>\n",3.0.3.43,3.0.3.60,3.0.3.60,Full,1.0.0.8,Keyboard,Keyboard
Proc3,,List11,,,,,,,,484,3,468,468,Keyboard,763,3,0,,16,,,,,,,,,,,,5,1,5,,,,,,,,,,,,,,,,,,,,,,,,,,,,DelayDiscountingTitrated,10-01-2024,08:51:35,,2072,1,16,DelayDiscountingTitrated-2072-1,-983366129,1,75.006,"<?xml version=""1.0""?>\n<Clock xmlns:dt=""urn:schemas-microsoft-com:datatypes""><Description dt:dt=""string"">E-Prime Primary Realtime Clock</Description><StartTime><Timestamp dt:dt=""int"">0</Timestamp><DateUtc dt:dt=""string"">2024-10-01T12:51:35Z</DateUtc></StartTime><FrequencyChanges><FrequencyChange><Frequency dt:dt=""r8"">10000000</Frequency><Timestamp dt:dt=""r8"">3130044802267</Timestamp><Current dt:dt=""r8"">0</Current><DateUtc dt:dt=""string"">2024-10-01T12:51:35Z</DateUtc></FrequencyChange></FrequencyChanges></Clock>\n",3.0.3.43,3.0.3.60,3.0.3.60,Full,1.0.0.8,Keyboard,Keyboard
Proc3,,List11,,,,,,,,492,3,484,484,Keyboard,2444,3,0,,8,,,,,,,,,,,,6,1,6,,,,,,,,,,,,,,,,,,,,,,,,,,,,DelayDiscountingTitrated,10-01-2024,08:51:35,,2072,1,16,DelayDiscountingTitrated-2072-1,-983366129,1,75.006,"<?xml version=""1.0""?>\n<Clock xmlns:dt=""urn:schemas-microsoft-com:datatypes""><Description dt:dt=""string"">E-Prime Primary Realtime Clock</Description><StartTime><Timestamp dt:dt=""int"">0</Timestamp><DateUtc dt:dt=""string"">2024-10-01T12:51:35Z</DateUtc></StartTime><FrequencyChanges><FrequencyChange><Frequency dt:dt=""r8"">10000000</Frequency><Timestamp dt:dt=""r8"">3130044802267</Timestamp><Current dt:dt=""r8"">0</Current><DateUtc dt:dt=""string"">2024-10-01T12:51:35Z</DateUtc></FrequencyChange></FrequencyChanges></Clock>\n",3.0.3.43,3.0.3.60,3.0.3.60,Full,1.0.0.8,Keyboard,Keyboard
Proc3,,List11,,,,,,,,496,3,492,492,Keyboard,2634,3,0,,4,,,,,,,,,,,,7,1,7,,,,,,,,,,,,,,,,,,,,,,,,,,,,DelayDiscountingTitrated,10-01-2024,08:51:35,,2072,1,16,DelayDiscountingTitrated-2072-1,-983366129,1,75.006,"<?xml version=""1.0""?>\n<Clock xmlns:dt=""urn:schemas-microsoft-com:datatypes""><Description dt:dt=""string"">E-Prime Primary Realtime Clock</Description><StartTime><Timestamp dt:dt=""int"">0</Timestamp><DateUtc dt:dt=""string"">2024-10-01T12:51:35Z</DateUtc></StartTime><FrequencyChanges><FrequencyChange><Frequency dt:dt=""r8"">10000000</Frequency><Timestamp dt:dt=""r8"">3130044802267</Timestamp><Current dt:dt=""r8"">0</Current><DateUtc dt:dt=""string"">2024-10-01T12:51:35Z</DateUtc></FrequencyChange></FrequencyChanges></Clock>\n",3.0.3.43,3.0.3.60,3.0.3.60,Full,1.0.0.8,Keyboard,Keyboard
Proc3,,List11,,,,,,,,494,1,496,496,Keyboard,3364,1,0,,2,,,,,,,,,,,,8,1,8,,,,,,,,,,,,,,,,,,,,,,,,,,,,DelayDiscountingTitrated,10-01-2024,08:51:35,,2072,1,16,DelayDiscountingTitrated-2072-1,-983366129,1,75.006,"<?xml version=""1.0""?>\n<Clock xmlns:dt=""urn:schemas-microsoft-com:datatypes""><Description dt:dt=""string"">E-Prime Primary Realtime Clock</Description><StartTime><Timestamp dt:dt=""int"">0</Timestamp><DateUtc dt:dt=""string"">2024-10-01T12:51:35Z</DateUtc></StartTime><FrequencyChanges><FrequencyChange><Frequency dt:dt=""r8"">10000000</Frequency><Timestamp dt:dt=""r8"">3130044802267</Timestamp><Current dt:dt=""r8"">0</Current><DateUtc dt:dt=""string"">2024-10-01T12:51:35Z</DateUtc></FrequencyChange></FrequencyChanges></Clock>\n",3.0.3.43,3.0.3.60,3.0.3.60,Full,1.0.0.8,Keyboard,Keyboard
Proc3,,List11,,,,,,,,493,1,494,494,Keyboard,656,1,0,,1,,,,,,,,,,,,9,1,9,,,,,,,,,,,,,,,,,,,,,,,,,,,,DelayDiscountingTitrated,10-01-2024,08:51:35,,2072,1,16,DelayDiscountingTitrated-2072-1,-983366129,1,75.006,"<?xml version=""1.0""?>\n<Clock xmlns:dt=""urn:schemas-microsoft-com:datatypes""><Description dt:dt=""string"">E-Prime Primary Realtime Clock</Description><StartTime><Timestamp dt:dt=""int"">0</Timestamp><DateUtc dt:dt=""string"">2024-10-01T12:51:35Z</DateUtc></StartTime><FrequencyChanges><FrequencyChange><Frequency dt:dt=""r8"">10000000</Frequency><Timestamp dt:dt=""r8"">3130044802267</Timestamp><Current dt:dt=""r8"">0</Current><DateUtc dt:dt=""string"">2024-10-01T12:51:35Z</DateUtc></FrequencyChange></FrequencyChanges></Clock>\n",3.0.3.43,3.0.3.60,3.0.3.60,Full,1.0.0.8,Keyboard,Keyboard
Proc3,,List11,,,,,,,,493,1,494,493,Keyboard,420,1,0,,,,,,,,,,,,,,10,1,10,,,,,,,,,,,,,,,,,,,,,,,,,,,,DelayDiscountingTitrated,10-01-2024,08:51:35,,2072,1,16,DelayDiscountingTitrated-2072-1,-983366129,1,75.006,"<?xml version=""1.0""?>\n<Clock xmlns:dt=""urn:schemas-microsoft-com:datatypes""><Description dt:dt=""string"">E-Prime Primary Realtime Clock</Description><StartTime><Timestamp dt:dt=""int"">0</Timestamp><DateUtc dt:dt=""string"">2024-10-01T12:51:35Z</DateUtc></StartTime><FrequencyChanges><FrequencyChange><Frequency dt:dt=""r8"">10000000</Frequency><Timestamp dt:dt=""r8"">3130044802267</Timestamp><Current dt:dt=""r8"">0</Current><DateUtc dt:dt=""string"">2024-10-01T12:51:35Z</DateUtc></FrequencyChange></FrequencyChanges></Clock>\n",3.0.3.43,3.0.3.60,3.0.3.60,Full,1.0.0.8,Keyboard,Keyboard
discount3,,List6,,,,,,,,,,,,,,,,,,500,1 year,365,,,,,,,,,,,,2,1,1,,,,,,,,,,,,,,,,,,,,,,,,,DelayDiscountingTitrated,10-01-2024,08:51:35,,2072,1,16,DelayDiscountingTitrated-2072-1,-983366129,1,75.006,"<?xml version=""1.0""?>\n<Clock xmlns:dt=""urn:schemas-microsoft-com:datatypes""><Description dt:dt=""string"">E-Prime Primary Realtime Clock</Description><StartTime><Timestamp dt:dt=""int"">0</Timestamp><DateUtc dt:dt=""string"">2024-10-01T12:51:35Z</DateUtc></StartTime><FrequencyChanges><FrequencyChange><Frequency dt:dt=""r8"">10000000</Frequency><Timestamp dt:dt=""r8"">3130044802267</Timestamp><Current dt:dt=""r8"">0</Current><DateUtc dt:dt=""string"">2024-10-01T12:51:35Z</DateUtc></FrequencyChange></FrequencyChanges></Clock>\n",3.0.3.43,3.0.3.60,3.0.3.60,Full,1.0.0.8,Keyboard,Keyboard
oneyearproc,,List1,,,,,,,,,,,,,,,,,,,,,,,,4,1,2,2,Keyboard,,,,,,,,,,,,,,,,,,,,,,,,,,,,,,,DelayDiscountingTitrated,10-01-2024,08:51:35,,2072,1,16,DelayDiscountingTitrated-2072-1,-983366129,1,75.006,"<?xml version=""1.0""?>\n<Clock xmlns:dt=""urn:schemas-microsoft-com:datatypes""><Description dt:dt=""string"">E-Prime Primary Realtime Clock</Description><StartTime><Timestamp dt:dt=""int"">0</Timestamp><DateUtc dt:dt=""string"">2024-10-01T12:51:35Z</DateUtc></StartTime><FrequencyChanges><FrequencyChange><Frequency dt:dt=""r8"">10000000</Frequency><Timestamp dt:dt=""r8"">3130044802267</Timestamp><Current dt:dt=""r8"">0</Current><DateUtc dt:dt=""string"">2024-10-01T12:51:35Z</DateUtc></FrequencyChange></FrequencyChanges></Clock>\n",3.0.3.43,3.0.3.60,3.0.3.60,Full,1.0.0.8,Keyboard,Keyboard
Init2,,List10,,,Keyboard,960,3,0,,600,3,200,,,,,,,,,,,,,,,,,,,,,,,,,1,1,1,,,,,,,,,,,,,,,,,,,,,,DelayDiscountingTitrated,10-01-2024,08:51:35,,2072,1,16,DelayDiscountingTitrated-2072-1,-983366129,1,75.006,"<?xml version=""1.0""?>\n<Clock xmlns:dt=""urn:schemas-microsoft-com:datatypes""><Description dt:dt=""string"">E-Prime Primary Realtime Clock</Description><StartTime><Timestamp dt:dt=""int"">0</Timestamp><DateUtc dt:dt=""string"">2024-10-01T12:51:35Z</DateUtc></StartTime><FrequencyChanges><FrequencyChange><Frequency dt:dt=""r8"">10000000</Frequency><Timestamp dt:dt=""r8"">3130044802267</Timestamp><Current dt:dt=""r8"">0</Current><DateUtc dt:dt=""string"">2024-10-01T12:51:35Z</DateUtc></FrequencyChange></FrequencyChanges></Clock>\n",3.0.3.43,3.0.3.60,3.0.3.60,Full,1.0.0.8,Keyboard,Keyboard
Proc2,,List10,,,,,,,,400,1,600,600,Keyboard,694,1,0,,200,,,,,,,,,,,,,,,,,,2,1,2,,,,,,,,,,,,,,,,,,,,,,DelayDiscountingTitrated,10-01-2024,08:51:35,,2072,1,16,DelayDiscountingTitrated-2072-1,-983366129,1,75.006,"<?xml version=""1.0""?>\n<Clock xmlns:dt=""urn:schemas-microsoft-com:datatypes""><Description dt:dt=""string"">E-Prime Primary Realtime Clock</Description><StartTime><Timestamp dt:dt=""int"">0</Timestamp><DateUtc dt:dt=""string"">2024-10-01T12:51:35Z</DateUtc></StartTime><FrequencyChanges><FrequencyChange><Frequency dt:dt=""r8"">10000000</Frequency><Timestamp dt:dt=""r8"">3130044802267</Timestamp><Current dt:dt=""r8"">0</Current><DateUtc dt:dt=""string"">2024-10-01T12:51:35Z</DateUtc></FrequencyChange></FrequencyChanges></Clock>\n",3.0.3.43,3.0.3.60,3.0.3.60,Full,1.0.0.8,Keyboard,Keyboard
Proc2,,List10,,,,,,,,500,3,400,400,Keyboard,638,3,0,,100,,,,,,,,,,,,,,,,,,3,1,3,,,,,,,,,,,,,,,,,,,,,,DelayDiscountingTitrated,10-01-2024,08:51:35,,2072,1,16,DelayDiscountingTitrated-2072-1,-983366129,1,75.006,"<?xml version=""1.0""?>\n<Clock xmlns:dt=""urn:schemas-microsoft-com:datatypes""><Description dt:dt=""string"">E-Prime Primary Realtime Clock</Description><StartTime><Timestamp dt:dt=""int"">0</Timestamp><DateUtc dt:dt=""string"">2024-10-01T12:51:35Z</DateUtc></StartTime><FrequencyChanges><FrequencyChange><Frequency dt:dt=""r8"">10000000</Frequency><Timestamp dt:dt=""r8"">3130044802267</Timestamp><Current dt:dt=""r8"">0</Current><DateUtc dt:dt=""string"">2024-10-01T12:51:35Z</DateUtc></FrequencyChange></FrequencyChanges></Clock>\n",3.0.3.43,3.0.3.60,3.0.3.60,Full,1.0.0.8,Keyboard,Keyboard
Proc2,,List10,,,,,,,,550,3,500,500,Keyboard,297,3,0,,50,,,,,,,,,,,,,,,,,,4,1,4,,,,,,,,,,,,,,,,,,,,,,DelayDiscountingTitrated,10-01-2024,08:51:35,,2072,1,16,DelayDiscountingTitrated-2072-1,-983366129,1,75.006,"<?xml version=""1.0""?>\n<Clock xmlns:dt=""urn:schemas-microsoft-com:datatypes""><Description dt:dt=""string"">E-Prime Primary Realtime Clock</Description><StartTime><Timestamp dt:dt=""int"">0</Timestamp><DateUtc dt:dt=""string"">2024-10-01T12:51:35Z</DateUtc></StartTime><FrequencyChanges><FrequencyChange><Frequency dt:dt=""r8"">10000000</Frequency><Timestamp dt:dt=""r8"">3130044802267</Timestamp><Current dt:dt=""r8"">0</Current><DateUtc dt:dt=""string"">2024-10-01T12:51:35Z</DateUtc></FrequencyChange></FrequencyChanges></Clock>\n",3.0.3.43,3.0.3.60,3.0.3.60,Full,1.0.0.8,Keyboard,Keyboard
Proc2,,List10,,,,,,,,575,3,550,550,Keyboard,819,3,0,,25,,,,,,,,,,,,,,,,,,5,1,5,,,,,,,,,,,,,,,,,,,,,,DelayDiscountingTitrated,10-01-2024,08:51:35,,2072,1,16,DelayDiscountingTitrated-2072-1,-983366129,1,75.006,"<?xml version=""1.0""?>\n<Clock xmlns:dt=""urn:schemas-microsoft-com:datatypes""><Description dt:dt=""string"">E-Prime Primary Realtime Clock</Description><StartTime><Timestamp dt:dt=""int"">0</Timestamp><DateUtc dt:dt=""string"">2024-10-01T12:51:35Z</DateUtc></StartTime><FrequencyChanges><FrequencyChange><Frequency dt:dt=""r8"">10000000</Frequency><Timestamp dt:dt=""r8"">3130044802267</Timestamp><Current dt:dt=""r8"">0</Current><DateUtc dt:dt=""string"">2024-10-01T12:51:35Z</DateUtc></FrequencyChange></FrequencyChanges></Clock>\n",3.0.3.43,3.0.3.60,3.0.3.60,Full,1.0.0.8,Keyboard,Keyboard
Proc2,,List10,,,,,,,,587,3,575,575,Keyboard,1188,3,0,,12,,,,,,,,,,,,,,,,,,6,1,6,,,,,,,,,,,,,,,,,,,,,,DelayDiscountingTitrated,10-01-2024,08:51:35,,2072,1,16,DelayDiscountingTitrated-2072-1,-983366129,1,75.006,"<?xml version=""1.0""?>\n<Clock xmlns:dt=""urn:schemas-microsoft-com:datatypes""><Description dt:dt=""string"">E-Prime Primary Realtime Clock</Description><StartTime><Timestamp dt:dt=""int"">0</Timestamp><DateUtc dt:dt=""string"">2024-10-01T12:51:35Z</DateUtc></StartTime><FrequencyChanges><FrequencyChange><Frequency dt:dt=""r8"">10000000</Frequency><Timestamp dt:dt=""r8"">3130044802267</Timestamp><Current dt:dt=""r8"">0</Current><DateUtc dt:dt=""string"">2024-10-01T12:51:35Z</DateUtc></FrequencyChange></FrequencyChanges></Clock>\n",3.0.3.43,3.0.3.60,3.0.3.60,Full,1.0.0.8,Keyboard,Keyboard
Proc2,,List10,,,,,,,,593,3,587,587,Keyboard,1030,3,0,,6,,,,,,,,,,,,,,,,,,7,1,7,,,,,,,,,,,,,,,,,,,,,,DelayDiscountingTitrated,10-01-2024,08:51:35,,2072,1,16,DelayDiscountingTitrated-2072-1,-983366129,1,75.006,"<?xml version=""1.0""?>\n<Clock xmlns:dt=""urn:schemas-microsoft-com:datatypes""><Description dt:dt=""string"">E-Prime Primary Realtime Clock</Description><StartTime><Timestamp dt:dt=""int"">0</Timestamp><DateUtc dt:dt=""string"">2024-10-01T12:51:35Z</DateUtc></StartTime><FrequencyChanges><FrequencyChange><Frequency dt:dt=""r8"">10000000</Frequency><Timestamp dt:dt=""r8"">3130044802267</Timestamp><Current dt:dt=""r8"">0</Current><DateUtc dt:dt=""string"">2024-10-01T12:51:35Z</DateUtc></FrequencyChange></FrequencyChanges></Clock>\n",3.0.3.43,3.0.3.60,3.0.3.60,Full,1.0.0.8,Keyboard,Keyboard
Proc2,,List10,,,,,,,,590,1,593,593,Keyboard,704,1,0,,3,,,,,,,,,,,,,,,,,,8,1,8,,,,,,,,,,,,,,,,,,,,,,DelayDiscountingTitrated,10-01-2024,08:51:35,,2072,1,16,DelayDiscountingTitrated-2072-1,-983366129,1,75.006,"<?xml version=""1.0""?>\n<Clock xmlns:dt=""urn:schemas-microsoft-com:datatypes""><Description dt:dt=""string"">E-Prime Primary Realtime Clock</Description><StartTime><Timestamp dt:dt=""int"">0</Timestamp><DateUtc dt:dt=""string"">2024-10-01T12:51:35Z</DateUtc></StartTime><FrequencyChanges><FrequencyChange><Frequency dt:dt=""r8"">10000000</Frequency><Timestamp dt:dt=""r8"">3130044802267</Timestamp><Current dt:dt=""r8"">0</Current><DateUtc dt:dt=""string"">2024-10-01T12:51:35Z</DateUtc></FrequencyChange></FrequencyChanges></Clock>\n",3.0.3.43,3.0.3.60,3.0.3.60,Full,1.0.0.8,Keyboard,Keyboard
Proc2,,List10,,,,,,,,588,1,590,590,Keyboard,997,1,0,,2,,,,,,,,,,,,,,,,,,9,1,9,,,,,,,,,,,,,,,,,,,,,,DelayDiscountingTitrated,10-01-2024,08:51:35,,2072,1,16,DelayDiscountingTitrated-2072-1,-983366129,1,75.006,"<?xml version=""1.0""?>\n<Clock xmlns:dt=""urn:schemas-microsoft-com:datatypes""><Description dt:dt=""string"">E-Prime Primary Realtime Clock</Description><StartTime><Timestamp dt:dt=""int"">0</Timestamp><DateUtc dt:dt=""string"">2024-10-01T12:51:35Z</DateUtc></StartTime><FrequencyChanges><FrequencyChange><Frequency dt:dt=""r8"">10000000</Frequency><Timestamp dt:dt=""r8"">3130044802267</Timestamp><Current dt:dt=""r8"">0</Current><DateUtc dt:dt=""string"">2024-10-01T12:51:35Z</DateUtc></FrequencyChange></FrequencyChanges></Clock>\n",3.0.3.43,3.0.3.60,3.0.3.60,Full,1.0.0.8,Keyboard,Keyboard
Proc2,,List10,,,,,,,,589,3,588,588,Keyboard,1454,3,0,,1,,,,,,,,,,,,,,,,,,10,1,10,,,,,,,,,,,,,,,,,,,,,,DelayDiscountingTitrated,10-01-2024,08:51:35,,2072,1,16,DelayDiscountingTitrated-2072-1,-983366129,1,75.006,"<?xml version=""1.0""?>\n<Clock xmlns:dt=""urn:schemas-microsoft-com:datatypes""><Description dt:dt=""string"">E-Prime Primary Realtime Clock</Description><StartTime><Timestamp dt:dt=""int"">0</Timestamp><DateUtc dt:dt=""string"">2024-10-01T12:51:35Z</DateUtc></StartTime><FrequencyChanges><FrequencyChange><Frequency dt:dt=""r8"">10000000</Frequency><Timestamp dt:dt=""r8"">3130044802267</Timestamp><Current dt:dt=""r8"">0</Current><DateUtc dt:dt=""string"">2024-10-01T12:51:35Z</DateUtc></FrequencyChange></FrequencyChanges></Clock>\n",3.0.3.43,3.0.3.60,3.0.3.60,Full,1.0.0.8,Keyboard,Keyboard
Proc2,,List10,,,,,,,,589,3,588,589,Keyboard,1394,3,0,,,,,,,,,,,,,,,,,,,,11,1,11,,,,,,,,,,,,,,,,,,,,,,DelayDiscountingTitrated,10-01-2024,08:51:35,,2072,1,16,DelayDiscountingTitrated-2072-1,-983366129,1,75.006,"<?xml version=""1.0""?>\n<Clock xmlns:dt=""urn:schemas-microsoft-com:datatypes""><Description dt:dt=""string"">E-Prime Primary Realtime Clock</Description><StartTime><Timestamp dt:dt=""int"">0</Timestamp><DateUtc dt:dt=""string"">2024-10-01T12:51:35Z</DateUtc></StartTime><FrequencyChanges><FrequencyChange><Frequency dt:dt=""r8"">10000000</Frequency><Timestamp dt:dt=""r8"">3130044802267</Timestamp><Current dt:dt=""r8"">0</Current><DateUtc dt:dt=""string"">2024-10-01T12:51:35Z</DateUtc></FrequencyChange></FrequencyChanges></Clock>\n",3.0.3.43,3.0.3.60,3.0.3.60,Full,1.0.0.8,Keyboard,Keyboard
discount2,,List5,,,,,,,,,,,,,,,,,,200,6 month,180,,,,,,,,,,,,,,,,,,1,1,1,,,,,,,,,,,,,,,,,,,DelayDiscountingTitrated,10-01-2024,08:51:35,,2072,1,16,DelayDiscountingTitrated-2072-1,-983366129,1,75.006,"<?xml version=""1.0""?>\n<Clock xmlns:dt=""urn:schemas-microsoft-com:datatypes""><Description dt:dt=""string"">E-Prime Primary Realtime Clock</Description><StartTime><Timestamp dt:dt=""int"">0</Timestamp><DateUtc dt:dt=""string"">2024-10-01T12:51:35Z</DateUtc></StartTime><FrequencyChanges><FrequencyChange><Frequency dt:dt=""r8"">10000000</Frequency><Timestamp dt:dt=""r8"">3130044802267</Timestamp><Current dt:dt=""r8"">0</Current><DateUtc dt:dt=""string"">2024-10-01T12:51:35Z</DateUtc></FrequencyChange></FrequencyChanges></Clock>\n",3.0.3.43,3.0.3.60,3.0.3.60,Full,1.0.0.8,Keyboard,Keyboard
sixmthproc,,List1,,,,,,,,,,,,,,,,,,,,,,,,3,1,3,3,Keyboard,,,,,,,,,,,,,,,,,,,,,,,,,,,,,,,DelayDiscountingTitrated,10-01-2024,08:51:35,,2072,1,16,DelayDiscountingTitrated-2072-1,-983366129,1,75.006,"<?xml version=""1.0""?>\n<Clock xmlns:dt=""urn:schemas-microsoft-com:datatypes""><Description dt:dt=""string"">E-Prime Primary Realtime Clock</Description><StartTime><Timestamp dt:dt=""int"">0</Timestamp><DateUtc dt:dt=""string"">2024-10-01T12:51:35Z</DateUtc></StartTime><FrequencyChanges><FrequencyChange><Frequency dt:dt=""r8"">10000000</Frequency><Timestamp dt:dt=""r8"">3130044802267</Timestamp><Current dt:dt=""r8"">0</Current><DateUtc dt:dt=""string"">2024-10-01T12:51:35Z</DateUtc></FrequencyChange></FrequencyChanges></Clock>\n",3.0.3.43,3.0.3.60,3.0.3.60,Full,1.0.0.8,Keyboard,Keyboard
TrialProcInit,,List2,,,Keyboard,1190,3,0,,750,3,500,,,,,,,,,,,,,,,,,,,,,,,,,,,,,,,1,1,1,,,,,,,,,,,,,,,,DelayDiscountingTitrated,10-01-2024,08:51:35,,2072,1,16,DelayDiscountingTitrated-2072-1,-983366129,1,75.006,"<?xml version=""1.0""?>\n<Clock xmlns:dt=""urn:schemas-microsoft-com:datatypes""><Description dt:dt=""string"">E-Prime Primary Realtime Clock</Description><StartTime><Timestamp dt:dt=""int"">0</Timestamp><DateUtc dt:dt=""string"">2024-10-01T12:51:35Z</DateUtc></StartTime><FrequencyChanges><FrequencyChange><Frequency dt:dt=""r8"">10000000</Frequency><Timestamp dt:dt=""r8"">3130044802267</Timestamp><Current dt:dt=""r8"">0</Current><DateUtc dt:dt=""string"">2024-10-01T12:51:35Z</DateUtc></FrequencyChange></FrequencyChanges></Clock>\n",3.0.3.43,3.0.3.60,3.0.3.60,Full,1.0.0.8,Keyboard,Keyboard
TrialProc,,List2,,,,,,,,875,3,750,750,Keyboard,1311,3,0,,125,,,,,,,,,,,,,,,,,,,,,,,,2,1,2,,,,,,,,,,,,,,,,DelayDiscountingTitrated,10-01-2024,08:51:35,,2072,1,16,DelayDiscountingTitrated-2072-1,-983366129,1,75.006,"<?xml version=""1.0""?>\n<Clock xmlns:dt=""urn:schemas-microsoft-com:datatypes""><Description dt:dt=""string"">E-Prime Primary Realtime Clock</Description><StartTime><Timestamp dt:dt=""int"">0</Timestamp><DateUtc dt:dt=""string"">2024-10-01T12:51:35Z</DateUtc></StartTime><FrequencyChanges><FrequencyChange><Frequency dt:dt=""r8"">10000000</Frequency><Timestamp dt:dt=""r8"">3130044802267</Timestamp><Current dt:dt=""r8"">0</Current><DateUtc dt:dt=""string"">2024-10-01T12:51:35Z</DateUtc></FrequencyChange></FrequencyChanges></Clock>\n",3.0.3.43,3.0.3.60,3.0.3.60,Full,1.0.0.8,Keyboard,Keyboard
TrialProc,,List2,,,,,,,,937,3,875,875,Keyboard,673,3,0,,62,,,,,,,,,,,,,,,,,,,,,,,,3,1,3,,,,,,,,,,,,,,,,DelayDiscountingTitrated,10-01-2024,08:51:35,,2072,1,16,DelayDiscountingTitrated-2072-1,-983366129,1,75.006,"<?xml version=""1.0""?>\n<Clock xmlns:dt=""urn:schemas-microsoft-com:datatypes""><Description dt:dt=""string"">E-Prime Primary Realtime Clock</Description><StartTime><Timestamp dt:dt=""int"">0</Timestamp><DateUtc dt:dt=""string"">2024-10-01T12:51:35Z</DateUtc></StartTime><FrequencyChanges><FrequencyChange><Frequency dt:dt=""r8"">10000000</Frequency><Timestamp dt:dt=""r8"">3130044802267</Timestamp><Current dt:dt=""r8"">0</Current><DateUtc dt:dt=""string"">2024-10-01T12:51:35Z</DateUtc></FrequencyChange></FrequencyChanges></Clock>\n",3.0.3.43,3.0.3.60,3.0.3.60,Full,1.0.0.8,Keyboard,Keyboard
TrialProc,,List2,,,,,,,,906,1,937,937,Keyboard,1112,1,0,,31,,,,,,,,,,,,,,,,,,,,,,,,4,1,4,,,,,,,,,,,,,,,,DelayDiscountingTitrated,10-01-2024,08:51:35,,2072,1,16,DelayDiscountingTitrated-2072-1,-983366129,1,75.006,"<?xml version=""1.0""?>\n<Clock xmlns:dt=""urn:schemas-microsoft-com:datatypes""><Description dt:dt=""string"">E-Prime Primary Realtime Clock</Description><StartTime><Timestamp dt:dt=""int"">0</Timestamp><DateUtc dt:dt=""string"">2024-10-01T12:51:35Z</DateUtc></StartTime><FrequencyChanges><FrequencyChange><Frequency dt:dt=""r8"">10000000</Frequency><Timestamp dt:dt=""r8"">3130044802267</Timestamp><Current dt:dt=""r8"">0</Current><DateUtc dt:dt=""string"">2024-10-01T12:51:35Z</DateUtc></FrequencyChange></FrequencyChanges></Clock>\n",3.0.3.43,3.0.3.60,3.0.3.60,Full,1.0.0.8,Keyboard,Keyboard
TrialProc,,List2,,,,,,,,922,3,906,906,Keyboard,916,3,0,,16,,,,,,,,,,,,,,,,,,,,,,,,5,1,5,,,,,,,,,,,,,,,,DelayDiscountingTitrated,10-01-2024,08:51:35,,2072,1,16,DelayDiscountingTitrated-2072-1,-983366129,1,75.006,"<?xml version=""1.0""?>\n<Clock xmlns:dt=""urn:schemas-microsoft-com:datatypes""><Description dt:dt=""string"">E-Prime Primary Realtime Clock</Description><StartTime><Timestamp dt:dt=""int"">0</Timestamp><DateUtc dt:dt=""string"">2024-10-01T12:51:35Z</DateUtc></StartTime><FrequencyChanges><FrequencyChange><Frequency dt:dt=""r8"">10000000</Frequency><Timestamp dt:dt=""r8"">3130044802267</Timestamp><Current dt:dt=""r8"">0</Current><DateUtc dt:dt=""string"">2024-10-01T12:51:35Z</DateUtc></FrequencyChange></FrequencyChanges></Clock>\n",3.0.3.43,3.0.3.60,3.0.3.60,Full,1.0.0.8,Keyboard,Keyboard
TrialProc,,List2,,,,,,,,930,3,922,922,Keyboard,573,3,0,,8,,,,,,,,,,,,,,,,,,,,,,,,6,1,6,,,,,,,,,,,,,,,,DelayDiscountingTitrated,10-01-2024,08:51:35,,2072,1,16,DelayDiscountingTitrated-2072-1,-983366129,1,75.006,"<?xml version=""1.0""?>\n<Clock xmlns:dt=""urn:schemas-microsoft-com:datatypes""><Description dt:dt=""string"">E-Prime Primary Realtime Clock</Description><StartTime><Timestamp dt:dt=""int"">0</Timestamp><DateUtc dt:dt=""string"">2024-10-01T12:51:35Z</DateUtc></StartTime><FrequencyChanges><FrequencyChange><Frequency dt:dt=""r8"">10000000</Frequency><Timestamp dt:dt=""r8"">3130044802267</Timestamp><Current dt:dt=""r8"">0</Current><DateUtc dt:dt=""string"">2024-10-01T12:51:35Z</DateUtc></FrequencyChange></FrequencyChanges></Clock>\n",3.0.3.43,3.0.3.60,3.0.3.60,Full,1.0.0.8,Keyboard,Keyboard
TrialProc,,List2,,,,,,,,934,3,930,930,Keyboard,311,3,0,,4,,,,,,,,,,,,,,,,,,,,,,,,7,1,7,,,,,,,,,,,,,,,,DelayDiscountingTitrated,10-01-2024,08:51:35,,2072,1,16,DelayDiscountingTitrated-2072-1,-983366129,1,75.006,"<?xml version=""1.0""?>\n<Clock xmlns:dt=""urn:schemas-microsoft-com:datatypes""><Description dt:dt=""string"">E-Prime Primary Realtime Clock</Description><StartTime><Timestamp dt:dt=""int"">0</Timestamp><DateUtc dt:dt=""string"">2024-10-01T12:51:35Z</DateUtc></StartTime><FrequencyChanges><FrequencyChange><Frequency dt:dt=""r8"">10000000</Frequency><Timestamp dt:dt=""r8"">3130044802267</Timestamp><Current dt:dt=""r8"">0</Current><DateUtc dt:dt=""string"">2024-10-01T12:51:35Z</DateUtc></FrequencyChange></FrequencyChanges></Clock>\n",3.0.3.43,3.0.3.60,3.0.3.60,Full,1.0.0.8,Keyboard,Keyboard
TrialProc,,List2,,,,,,,,936,3,934,934,Keyboard,727,3,0,,2,,,,,,,,,,,,,,,,,,,,,,,,8,1,8,,,,,,,,,,,,,,,,DelayDiscountingTitrated,10-01-2024,08:51:35,,2072,1,16,DelayDiscountingTitrated-2072-1,-983366129,1,75.006,"<?xml version=""1.0""?>\n<Clock xmlns:dt=""urn:schemas-microsoft-com:datatypes""><Description dt:dt=""string"">E-Prime Primary Realtime Clock</Description><StartTime><Timestamp dt:dt=""int"">0</Timestamp><DateUtc dt:dt=""string"">2024-10-01T12:51:35Z</DateUtc></StartTime><FrequencyChanges><FrequencyChange><Frequency dt:dt=""r8"">10000000</Frequency><Timestamp dt:dt=""r8"">3130044802267</Timestamp><Current dt:dt=""r8"">0</Current><DateUtc dt:dt=""string"">2024-10-01T12:51:35Z</DateUtc></FrequencyChange></FrequencyChanges></Clock>\n",3.0.3.43,3.0.3.60,3.0.3.60,Full,1.0.0.8,Keyboard,Keyboard
TrialProc,,List2,,,,,,,,937,3,936,936,Keyboard,563,3,0,,1,,,,,,,,,,,,,,,,,,,,,,,,9,1,9,,,,,,,,,,,,,,,,DelayDiscountingTitrated,10-01-2024,08:51:35,,2072,1,16,DelayDiscountingTitrated-2072-1,-983366129,1,75.006,"<?xml version=""1.0""?>\n<Clock xmlns:dt=""urn:schemas-microsoft-com:datatypes""><Description dt:dt=""string"">E-Prime Primary Realtime Clock</Description><StartTime><Timestamp dt:dt=""int"">0</Timestamp><DateUtc dt:dt=""string"">2024-10-01T12:51:35Z</DateUtc></StartTime><FrequencyChanges><FrequencyChange><Frequency dt:dt=""r8"">10000000</Frequency><Timestamp dt:dt=""r8"">3130044802267</Timestamp><Current dt:dt=""r8"">0</Current><DateUtc dt:dt=""string"">2024-10-01T12:51:35Z</DateUtc></FrequencyChange></FrequencyChanges></Clock>\n",3.0.3.43,3.0.3.60,3.0.3.60,Full,1.0.0.8,Keyboard,Keyboard
TrialProc,,List2,,,,,,,,937,3,936,937,Keyboard,485,3,0,,,,,,,,,,,,,,,,,,,,,,,,,,10,1,10,,,,,,,,,,,,,,,,DelayDiscountingTitrated,10-01-2024,08:51:35,,2072,1,16,DelayDiscountingTitrated-2072-1,-983366129,1,75.006,"<?xml version=""1.0""?>\n<Clock xmlns:dt=""urn:schemas-microsoft-com:datatypes""><Description dt:dt=""string"">E-Prime Primary Realtime Clock</Description><StartTime><Timestamp dt:dt=""int"">0</Timestamp><DateUtc dt:dt=""string"">2024-10-01T12:51:35Z</DateUtc></StartTime><FrequencyChanges><FrequencyChange><Frequency dt:dt=""r8"">10000000</Frequency><Timestamp dt:dt=""r8"">3130044802267</Timestamp><Current dt:dt=""r8"">0</Current><DateUtc dt:dt=""string"">2024-10-01T12:51:35Z</DateUtc></FrequencyChange></FrequencyChanges></Clock>\n",3.0.3.43,3.0.3.60,3.0.3.60,Full,1.0.0.8,Keyboard,Keyboard
discount,,List3,,,,,,,,,,,,,,,,,,500,1 week,7,,,,,,,,,,,,,,,,,,,,,,,,2,1,1,,,,,,,,,,,,,DelayDiscountingTitrated,10-01-2024,08:51:35,,2072,1,16,DelayDiscountingTitrated-2072-1,-983366129,1,75.006,"<?xml version=""1.0""?>\n<Clock xmlns:dt=""urn:schemas-microsoft-com:datatypes""><Description dt:dt=""string"">E-Prime Primary Realtime Clock</Description><StartTime><Timestamp dt:dt=""int"">0</Timestamp><DateUtc dt:dt=""string"">2024-10-01T12:51:35Z</DateUtc></StartTime><FrequencyChanges><FrequencyChange><Frequency dt:dt=""r8"">10000000</Frequency><Timestamp dt:dt=""r8"">3130044802267</Timestamp><Current dt:dt=""r8"">0</Current><DateUtc dt:dt=""string"">2024-10-01T12:51:35Z</DateUtc></FrequencyChange></FrequencyChanges></Clock>\n",3.0.3.43,3.0.3.60,3.0.3.60,Full,1.0.0.8,Keyboard,Keyboard
onewkproc,,List1,,,,,,,,,,,,,,,,,,,,,,,,1,1,4,4,Keyboard,,,,,,,,,,,,,,,,,,,,,,,,,,,,,,,DelayDiscountingTitrated,10-01-2024,08:51:35,,2072,1,16,DelayDiscountingTitrated-2072-1,-983366129,1,75.006,"<?xml version=""1.0""?>\n<Clock xmlns:dt=""urn:schemas-microsoft-com:datatypes""><Description dt:dt=""string"">E-Prime Primary Realtime Clock</Description><StartTime><Timestamp dt:dt=""int"">0</Timestamp><DateUtc dt:dt=""string"">2024-10-01T12:51:35Z</DateUtc></StartTime><FrequencyChanges><FrequencyChange><Frequency dt:dt=""r8"">10000000</Frequency><Timestamp dt:dt=""r8"">3130044802267</Timestamp><Current dt:dt=""r8"">0</Current><DateUtc dt:dt=""string"">2024-10-01T12:51:35Z</DateUtc></FrequencyChange></FrequencyChanges></Clock>\n",3.0.3.43,3.0.3.60,3.0.3.60,Full,1.0.0.8,Keyboard,Keyboard
Init1,,List9,,,Keyboard,860,3,0,,750,3,500,,,,,,,,,,,,,,,,,,,,,,,,,,,,,,,,,,,,,1,1,1,,,,,,,,,,DelayDiscountingTitrated,10-01-2024,08:51:35,,2072,1,16,DelayDiscountingTitrated-2072-1,-983366129,1,75.006,"<?xml version=""1.0""?>\n<Clock xmlns:dt=""urn:schemas-microsoft-com:datatypes""><Description dt:dt=""string"">E-Prime Primary Realtime Clock</Description><StartTime><Timestamp dt:dt=""int"">0</Timestamp><DateUtc dt:dt=""string"">2024-10-01T12:51:35Z</DateUtc></StartTime><FrequencyChanges><FrequencyChange><Frequency dt:dt=""r8"">10000000</Frequency><Timestamp dt:dt=""r8"">3130044802267</Timestamp><Current dt:dt=""r8"">0</Current><DateUtc dt:dt=""string"">2024-10-01T12:51:35Z</DateUtc></FrequencyChange></FrequencyChanges></Clock>\n",3.0.3.43,3.0.3.60,3.0.3.60,Full,1.0.0.8,Keyboard,Keyboard
Proc1,,List9,,,,,,,,875,3,750,750,Keyboard,280,3,0,,125,,,,,,,,,,,,,,,,,,,,,,,,,,,,,,2,1,2,,,,,,,,,,DelayDiscountingTitrated,10-01-2024,08:51:35,,2072,1,16,DelayDiscountingTitrated-2072-1,-983366129,1,75.006,"<?xml version=""1.0""?>\n<Clock xmlns:dt=""urn:schemas-microsoft-com:datatypes""><Description dt:dt=""string"">E-Prime Primary Realtime Clock</Description><StartTime><Timestamp dt:dt=""int"">0</Timestamp><DateUtc dt:dt=""string"">2024-10-01T12:51:35Z</DateUtc></StartTime><FrequencyChanges><FrequencyChange><Frequency dt:dt=""r8"">10000000</Frequency><Timestamp dt:dt=""r8"">3130044802267</Timestamp><Current dt:dt=""r8"">0</Current><DateUtc dt:dt=""string"">2024-10-01T12:51:35Z</DateUtc></FrequencyChange></FrequencyChanges></Clock>\n",3.0.3.43,3.0.3.60,3.0.3.60,Full,1.0.0.8,Keyboard,Keyboard
Proc1,,List9,,,,,,,,937,3,875,875,Keyboard,146,3,0,,62,,,,,,,,,,,,,,,,,,,,,,,,,,,,,,3,1,3,,,,,,,,,,DelayDiscountingTitrated,10-01-2024,08:51:35,,2072,1,16,DelayDiscountingTitrated-2072-1,-983366129,1,75.006,"<?xml version=""1.0""?>\n<Clock xmlns:dt=""urn:schemas-microsoft-com:datatypes""><Description dt:dt=""string"">E-Prime Primary Realtime Clock</Description><StartTime><Timestamp dt:dt=""int"">0</Timestamp><DateUtc dt:dt=""string"">2024-10-01T12:51:35Z</DateUtc></StartTime><FrequencyChanges><FrequencyChange><Frequency dt:dt=""r8"">10000000</Frequency><Timestamp dt:dt=""r8"">3130044802267</Timestamp><Current dt:dt=""r8"">0</Current><DateUtc dt:dt=""string"">2024-10-01T12:51:35Z</DateUtc></FrequencyChange></FrequencyChanges></Clock>\n",3.0.3.43,3.0.3.60,3.0.3.60,Full,1.0.0.8,Keyboard,Keyboard
Proc1,,List9,,,,,,,,969,3,937,937,Keyboard,322,3,0,,32,,,,,,,,,,,,,,,,,,,,,,,,,,,,,,4,1,4,,,,,,,,,,DelayDiscountingTitrated,10-01-2024,08:51:35,,2072,1,16,DelayDiscountingTitrated-2072-1,-983366129,1,75.006,"<?xml version=""1.0""?>\n<Clock xmlns:dt=""urn:schemas-microsoft-com:datatypes""><Description dt:dt=""string"">E-Prime Primary Realtime Clock</Description><StartTime><Timestamp dt:dt=""int"">0</Timestamp><DateUtc dt:dt=""string"">2024-10-01T12:51:35Z</DateUtc></StartTime><FrequencyChanges><FrequencyChange><Frequency dt:dt=""r8"">10000000</Frequency><Timestamp dt:dt=""r8"">3130044802267</Timestamp><Current dt:dt=""r8"">0</Current><DateUtc dt:dt=""string"">2024-10-01T12:51:35Z</DateUtc></FrequencyChange></FrequencyChanges></Clock>\n",3.0.3.43,3.0.3.60,3.0.3.60,Full,1.0.0.8,Keyboard,Keyboard
Proc1,,List9,,,,,,,,985,3,969,969,Keyboard,407,3,0,,16,,,,,,,,,,,,,,,,,,,,,,,,,,,,,,5,1,5,,,,,,,,,,DelayDiscountingTitrated,10-01-2024,08:51:35,,2072,1,16,DelayDiscountingTitrated-2072-1,-983366129,1,75.006,"<?xml version=""1.0""?>\n<Clock xmlns:dt=""urn:schemas-microsoft-com:datatypes""><Description dt:dt=""string"">E-Prime Primary Realtime Clock</Description><StartTime><Timestamp dt:dt=""int"">0</Timestamp><DateUtc dt:dt=""string"">2024-10-01T12:51:35Z</DateUtc></StartTime><FrequencyChanges><FrequencyChange><Frequency dt:dt=""r8"">10000000</Frequency><Timestamp dt:dt=""r8"">3130044802267</Timestamp><Current dt:dt=""r8"">0</Current><DateUtc dt:dt=""string"">2024-10-01T12:51:35Z</DateUtc></FrequencyChange></FrequencyChanges></Clock>\n",3.0.3.43,3.0.3.60,3.0.3.60,Full,1.0.0.8,Keyboard,Keyboard
Proc1,,List9,,,,,,,,993,3,985,985,Keyboard,346,3,0,,8,,,,,,,,,,,,,,,,,,,,,,,,,,,,,,6,1,6,,,,,,,,,,DelayDiscountingTitrated,10-01-2024,08:51:35,,2072,1,16,DelayDiscountingTitrated-2072-1,-983366129,1,75.006,"<?xml version=""1.0""?>\n<Clock xmlns:dt=""urn:schemas-microsoft-com:datatypes""><Description dt:dt=""string"">E-Prime Primary Realtime Clock</Description><StartTime><Timestamp dt:dt=""int"">0</Timestamp><DateUtc dt:dt=""string"">2024-10-01T12:51:35Z</DateUtc></StartTime><FrequencyChanges><FrequencyChange><Frequency dt:dt=""r8"">10000000</Frequency><Timestamp dt:dt=""r8"">3130044802267</Timestamp><Current dt:dt=""r8"">0</Current><DateUtc dt:dt=""string"">2024-10-01T12:51:35Z</DateUtc></FrequencyChange></FrequencyChanges></Clock>\n",3.0.3.43,3.0.3.60,3.0.3.60,Full,1.0.0.8,Keyboard,Keyboard
Proc1,,List9,,,,,,,,997,3,993,993,Keyboard,325,3,0,,4,,,,,,,,,,,,,,,,,,,,,,,,,,,,,,7,1,7,,,,,,,,,,DelayDiscountingTitrated,10-01-2024,08:51:35,,2072,1,16,DelayDiscountingTitrated-2072-1,-983366129,1,75.006,"<?xml version=""1.0""?>\n<Clock xmlns:dt=""urn:schemas-microsoft-com:datatypes""><Description dt:dt=""string"">E-Prime Primary Realtime Clock</Description><StartTime><Timestamp dt:dt=""int"">0</Timestamp><DateUtc dt:dt=""string"">2024-10-01T12:51:35Z</DateUtc></StartTime><FrequencyChanges><FrequencyChange><Frequency dt:dt=""r8"">10000000</Frequency><Timestamp dt:dt=""r8"">3130044802267</Timestamp><Current dt:dt=""r8"">0</Current><DateUtc dt:dt=""string"">2024-10-01T12:51:35Z</DateUtc></FrequencyChange></FrequencyChanges></Clock>\n",3.0.3.43,3.0.3.60,3.0.3.60,Full,1.0.0.8,Keyboard,Keyboard
Proc1,,List9,,,,,,,,999,3,997,997,Keyboard,677,3,0,,2,,,,,,,,,,,,,,,,,,,,,,,,,,,,,,8,1,8,,,,,,,,,,DelayDiscountingTitrated,10-01-2024,08:51:35,,2072,1,16,DelayDiscountingTitrated-2072-1,-983366129,1,75.006,"<?xml version=""1.0""?>\n<Clock xmlns:dt=""urn:schemas-microsoft-com:datatypes""><Description dt:dt=""string"">E-Prime Primary Realtime Clock</Description><StartTime><Timestamp dt:dt=""int"">0</Timestamp><DateUtc dt:dt=""string"">2024-10-01T12:51:35Z</DateUtc></StartTime><FrequencyChanges><FrequencyChange><Frequency dt:dt=""r8"">10000000</Frequency><Timestamp dt:dt=""r8"">3130044802267</Timestamp><Current dt:dt=""r8"">0</Current><DateUtc dt:dt=""string"">2024-10-01T12:51:35Z</DateUtc></FrequencyChange></FrequencyChanges></Clock>\n",3.0.3.43,3.0.3.60,3.0.3.60,Full,1.0.0.8,Keyboard,Keyboard
Proc1,,List9,,,,,,,,999,3,,999,Keyboard,535,3,0,,,,,,,,,,,,,,,,,,,,,,,,,,,,,,,,9,1,9,,,,,,,,,,DelayDiscountingTitrated,10-01-2024,08:51:35,,2072,1,16,DelayDiscountingTitrated-2072-1,-983366129,1,75.006,"<?xml version=""1.0""?>\n<Clock xmlns:dt=""urn:schemas-microsoft-com:datatypes""><Description dt:dt=""string"">E-Prime Primary Realtime Clock</Description><StartTime><Timestamp dt:dt=""int"">0</Timestamp><DateUtc dt:dt=""string"">2024-10-01T12:51:35Z</DateUtc></StartTime><FrequencyChanges><FrequencyChange><Frequency dt:dt=""r8"">10000000</Frequency><Timestamp dt:dt=""r8"">3130044802267</Timestamp><Current dt:dt=""r8"">0</Current><DateUtc dt:dt=""string"">2024-10-01T12:51:35Z</DateUtc></FrequencyChange></FrequencyChanges></Clock>\n",3.0.3.43,3.0.3.60,3.0.3.60,Full,1.0.0.8,Keyboard,Keyboard
discount1,,List4,,,,,,,,,,,,,,,,,,500,1 month,30,,,,,,,,,,,,,,,,,,,,,,,,,,,,,,2,1,1,,,,,,,DelayDiscountingTitrated,10-01-2024,08:51:35,,2072,1,16,DelayDiscountingTitrated-2072-1,-983366129,1,75.006,"<?xml version=""1.0""?>\n<Clock xmlns:dt=""urn:schemas-microsoft-com:datatypes""><Description dt:dt=""string"">E-Prime Primary Realtime Clock</Description><StartTime><Timestamp dt:dt=""int"">0</Timestamp><DateUtc dt:dt=""string"">2024-10-01T12:51:35Z</DateUtc></StartTime><FrequencyChanges><FrequencyChange><Frequency dt:dt=""r8"">10000000</Frequency><Timestamp dt:dt=""r8"">3130044802267</Timestamp><Current dt:dt=""r8"">0</Current><DateUtc dt:dt=""string"">2024-10-01T12:51:35Z</DateUtc></FrequencyChange></FrequencyChanges></Clock>\n",3.0.3.43,3.0.3.60,3.0.3.60,Full,1.0.0.8,Keyboard,Keyboard
onemthproc,,List1,,,,,,,,,,,,,,,,,,,,,,,,2,1,5,5,Keyboard,,,,,,,,,,,,,,,,,,,,,,,,,,,,,,,DelayDiscountingTitrated,10-01-2024,08:51:35,,2072,1,16,DelayDiscountingTitrated-2072-1,-983366129,1,75.006,"<?xml version=""1.0""?>\n<Clock xmlns:dt=""urn:schemas-microsoft-com:datatypes""><Description dt:dt=""string"">E-Prime Primary Realtime Clock</Description><StartTime><Timestamp dt:dt=""int"">0</Timestamp><DateUtc dt:dt=""string"">2024-10-01T12:51:35Z</DateUtc></StartTime><FrequencyChanges><FrequencyChange><Frequency dt:dt=""r8"">10000000</Frequency><Timestamp dt:dt=""r8"">3130044802267</Timestamp><Current dt:dt=""r8"">0</Current><DateUtc dt:dt=""string"">2024-10-01T12:51:35Z</DateUtc></FrequencyChange></FrequencyChanges></Clock>\n",3.0.3.43,3.0.3.60,3.0.3.60,Full,1.0.0.8,Keyboard,Keyboard
Init5,,List13,,,Keyboard,5658,1,0,,400,1,800,,,,,,,,,,,,,,,,,,,,,,,,,,,,,,,,,,,,,,,,,,,1,1,1,,,,DelayDiscountingTitrated,10-01-2024,08:51:35,,2072,1,16,DelayDiscountingTitrated-2072-1,-983366129,1,75.006,"<?xml version=""1.0""?>\n<Clock xmlns:dt=""urn:schemas-microsoft-com:datatypes""><Description dt:dt=""string"">E-Prime Primary Realtime Clock</Description><StartTime><Timestamp dt:dt=""int"">0</Timestamp><DateUtc dt:dt=""string"">2024-10-01T12:51:35Z</DateUtc></StartTime><FrequencyChanges><FrequencyChange><Frequency dt:dt=""r8"">10000000</Frequency><Timestamp dt:dt=""r8"">3130044802267</Timestamp><Current dt:dt=""r8"">0</Current><DateUtc dt:dt=""string"">2024-10-01T12:51:35Z</DateUtc></FrequencyChange></FrequencyChanges></Clock>\n",3.0.3.43,3.0.3.60,3.0.3.60,Full,1.0.0.8,Keyboard,Keyboard
Proc5,,List13,,,,,,,,200,1,400,400,Keyboard,494,1,0,,200,,,,,,,,,,,,,,,,,,,,,,,,,,,,,,,,,,,,2,1,2,,,,DelayDiscountingTitrated,10-01-2024,08:51:35,,2072,1,16,DelayDiscountingTitrated-2072-1,-983366129,1,75.006,"<?xml version=""1.0""?>\n<Clock xmlns:dt=""urn:schemas-microsoft-com:datatypes""><Description dt:dt=""string"">E-Prime Primary Realtime Clock</Description><StartTime><Timestamp dt:dt=""int"">0</Timestamp><DateUtc dt:dt=""string"">2024-10-01T12:51:35Z</DateUtc></StartTime><FrequencyChanges><FrequencyChange><Frequency dt:dt=""r8"">10000000</Frequency><Timestamp dt:dt=""r8"">3130044802267</Timestamp><Current dt:dt=""r8"">0</Current><DateUtc dt:dt=""string"">2024-10-01T12:51:35Z</DateUtc></FrequencyChange></FrequencyChanges></Clock>\n",3.0.3.43,3.0.3.60,3.0.3.60,Full,1.0.0.8,Keyboard,Keyboard
Proc5,,List13,,,,,,,,300,3,200,200,Keyboard,463,3,0,,100,,,,,,,,,,,,,,,,,,,,,,,,,,,,,,,,,,,,3,1,3,,,,DelayDiscountingTitrated,10-01-2024,08:51:35,,2072,1,16,DelayDiscountingTitrated-2072-1,-983366129,1,75.006,"<?xml version=""1.0""?>\n<Clock xmlns:dt=""urn:schemas-microsoft-com:datatypes""><Description dt:dt=""string"">E-Prime Primary Realtime Clock</Description><StartTime><Timestamp dt:dt=""int"">0</Timestamp><DateUtc dt:dt=""string"">2024-10-01T12:51:35Z</DateUtc></StartTime><FrequencyChanges><FrequencyChange><Frequency dt:dt=""r8"">10000000</Frequency><Timestamp dt:dt=""r8"">3130044802267</Timestamp><Current dt:dt=""r8"">0</Current><DateUtc dt:dt=""string"">2024-10-01T12:51:35Z</DateUtc></FrequencyChange></FrequencyChanges></Clock>\n",3.0.3.43,3.0.3.60,3.0.3.60,Full,1.0.0.8,Keyboard,Keyboard
Proc5,,List13,,,,,,,,350,3,300,300,Keyboard,1214,3,0,,50,,,,,,,,,,,,,,,,,,,,,,,,,,,,,,,,,,,,4,1,4,,,,DelayDiscountingTitrated,10-01-2024,08:51:35,,2072,1,16,DelayDiscountingTitrated-2072-1,-983366129,1,75.006,"<?xml version=""1.0""?>\n<Clock xmlns:dt=""urn:schemas-microsoft-com:datatypes""><Description dt:dt=""string"">E-Prime Primary Realtime Clock</Description><StartTime><Timestamp dt:dt=""int"">0</Timestamp><DateUtc dt:dt=""string"">2024-10-01T12:51:35Z</DateUtc></StartTime><FrequencyChanges><FrequencyChange><Frequency dt:dt=""r8"">10000000</Frequency><Timestamp dt:dt=""r8"">3130044802267</Timestamp><Current dt:dt=""r8"">0</Current><DateUtc dt:dt=""string"">2024-10-01T12:51:35Z</DateUtc></FrequencyChange></FrequencyChanges></Clock>\n",3.0.3.43,3.0.3.60,3.0.3.60,Full,1.0.0.8,Keyboard,Keyboard
Proc5,,List13,,,,,,,,375,3,350,350,Keyboard,4491,3,0,,25,,,,,,,,,,,,,,,,,,,,,,,,,,,,,,,,,,,,5,1,5,,,,DelayDiscountingTitrated,10-01-2024,08:51:35,,2072,1,16,DelayDiscountingTitrated-2072-1,-983366129,1,75.006,"<?xml version=""1.0""?>\n<Clock xmlns:dt=""urn:schemas-microsoft-com:datatypes""><Description dt:dt=""string"">E-Prime Primary Realtime Clock</Description><StartTime><Timestamp dt:dt=""int"">0</Timestamp><DateUtc dt:dt=""string"">2024-10-01T12:51:35Z</DateUtc></StartTime><FrequencyChanges><FrequencyChange><Frequency dt:dt=""r8"">10000000</Frequency><Timestamp dt:dt=""r8"">3130044802267</Timestamp><Current dt:dt=""r8"">0</Current><DateUtc dt:dt=""string"">2024-10-01T12:51:35Z</DateUtc></FrequencyChange></FrequencyChanges></Clock>\n",3.0.3.43,3.0.3.60,3.0.3.60,Full,1.0.0.8,Keyboard,Keyboard
Proc5,,List13,,,,,,,,387,3,375,375,Keyboard,1010,3,0,,12,,,,,,,,,,,,,,,,,,,,,,,,,,,,,,,,,,,,6,1,6,,,,DelayDiscountingTitrated,10-01-2024,08:51:35,,2072,1,16,DelayDiscountingTitrated-2072-1,-983366129,1,75.006,"<?xml version=""1.0""?>\n<Clock xmlns:dt=""urn:schemas-microsoft-com:datatypes""><Description dt:dt=""string"">E-Prime Primary Realtime Clock</Description><StartTime><Timestamp dt:dt=""int"">0</Timestamp><DateUtc dt:dt=""string"">2024-10-01T12:51:35Z</DateUtc></StartTime><FrequencyChanges><FrequencyChange><Frequency dt:dt=""r8"">10000000</Frequency><Timestamp dt:dt=""r8"">3130044802267</Timestamp><Current dt:dt=""r8"">0</Current><DateUtc dt:dt=""string"">2024-10-01T12:51:35Z</DateUtc></FrequencyChange></FrequencyChanges></Clock>\n",3.0.3.43,3.0.3.60,3.0.3.60,Full,1.0.0.8,Keyboard,Keyboard
Proc5,,List13,,,,,,,,393,3,387,387,Keyboard,2457,3,0,,6,,,,,,,,,,,,,,,,,,,,,,,,,,,,,,,,,,,,7,1,7,,,,DelayDiscountingTitrated,10-01-2024,08:51:35,,2072,1,16,DelayDiscountingTitrated-2072-1,-983366129,1,75.006,"<?xml version=""1.0""?>\n<Clock xmlns:dt=""urn:schemas-microsoft-com:datatypes""><Description dt:dt=""string"">E-Prime Primary Realtime Clock</Description><StartTime><Timestamp dt:dt=""int"">0</Timestamp><DateUtc dt:dt=""string"">2024-10-01T12:51:35Z</DateUtc></StartTime><FrequencyChanges><FrequencyChange><Frequency dt:dt=""r8"">10000000</Frequency><Timestamp dt:dt=""r8"">3130044802267</Timestamp><Current dt:dt=""r8"">0</Current><DateUtc dt:dt=""string"">2024-10-01T12:51:35Z</DateUtc></FrequencyChange></FrequencyChanges></Clock>\n",3.0.3.43,3.0.3.60,3.0.3.60,Full,1.0.0.8,Keyboard,Keyboard
Proc5,,List13,,,,,,,,396,3,393,393,Keyboard,634,3,0,,3,,,,,,,,,,,,,,,,,,,,,,,,,,,,,,,,,,,,8,1,8,,,,DelayDiscountingTitrated,10-01-2024,08:51:35,,2072,1,16,DelayDiscountingTitrated-2072-1,-983366129,1,75.006,"<?xml version=""1.0""?>\n<Clock xmlns:dt=""urn:schemas-microsoft-com:datatypes""><Description dt:dt=""string"">E-Prime Primary Realtime Clock</Description><StartTime><Timestamp dt:dt=""int"">0</Timestamp><DateUtc dt:dt=""string"">2024-10-01T12:51:35Z</DateUtc></StartTime><FrequencyChanges><FrequencyChange><Frequency dt:dt=""r8"">10000000</Frequency><Timestamp dt:dt=""r8"">3130044802267</Timestamp><Current dt:dt=""r8"">0</Current><DateUtc dt:dt=""string"">2024-10-01T12:51:35Z</DateUtc></FrequencyChange></FrequencyChanges></Clock>\n",3.0.3.43,3.0.3.60,3.0.3.60,Full,1.0.0.8,Keyboard,Keyboard
Proc5,,List13,,,,,,,,398,3,396,396,Keyboard,3996,3,0,,2,,,,,,,,,,,,,,,,,,,,,,,,,,,,,,,,,,,,9,1,9,,,,DelayDiscountingTitrated,10-01-2024,08:51:35,,2072,1,16,DelayDiscountingTitrated-2072-1,-983366129,1,75.006,"<?xml version=""1.0""?>\n<Clock xmlns:dt=""urn:schemas-microsoft-com:datatypes""><Description dt:dt=""string"">E-Prime Primary Realtime Clock</Description><StartTime><Timestamp dt:dt=""int"">0</Timestamp><DateUtc dt:dt=""string"">2024-10-01T12:51:35Z</DateUtc></StartTime><FrequencyChanges><FrequencyChange><Frequency dt:dt=""r8"">10000000</Frequency><Timestamp dt:dt=""r8"">3130044802267</Timestamp><Current dt:dt=""r8"">0</Current><DateUtc dt:dt=""string"">2024-10-01T12:51:35Z</DateUtc></FrequencyChange></FrequencyChanges></Clock>\n",3.0.3.43,3.0.3.60,3.0.3.60,Full,1.0.0.8,Keyboard,Keyboard
Proc5,,List13,,,,,,,,399,3,398,398,Keyboard,680,3,0,,1,,,,,,,,,,,,,,,,,,,,,,,,,,,,,,,,,,,,10,1,10,,,,DelayDiscountingTitrated,10-01-2024,08:51:35,,2072,1,16,DelayDiscountingTitrated-2072-1,-983366129,1,75.006,"<?xml version=""1.0""?>\n<Clock xmlns:dt=""urn:schemas-microsoft-com:datatypes""><Description dt:dt=""string"">E-Prime Primary Realtime Clock</Description><StartTime><Timestamp dt:dt=""int"">0</Timestamp><DateUtc dt:dt=""string"">2024-10-01T12:51:35Z</DateUtc></StartTime><FrequencyChanges><FrequencyChange><Frequency dt:dt=""r8"">10000000</Frequency><Timestamp dt:dt=""r8"">3130044802267</Timestamp><Current dt:dt=""r8"">0</Current><DateUtc dt:dt=""string"">2024-10-01T12:51:35Z</DateUtc></FrequencyChange></FrequencyChanges></Clock>\n",3.0.3.43,3.0.3.60,3.0.3.60,Full,1.0.0.8,Keyboard,Keyboard
Proc5,,List13,,,,,,,,399,3,398,399,Keyboard,179,3,0,,,,,,,,,,,,,,,,,,,,,,,,,,,,,,,,,,,,,,11,1,11,,,,DelayDiscountingTitrated,10-01-2024,08:51:35,,2072,1,16,DelayDiscountingTitrated-2072-1,-983366129,1,75.006,"<?xml version=""1.0""?>\n<Clock xmlns:dt=""urn:schemas-microsoft-com:datatypes""><Description dt:dt=""string"">E-Prime Primary Realtime Clock</Description><StartTime><Timestamp dt:dt=""int"">0</Timestamp><DateUtc dt:dt=""string"">2024-10-01T12:51:35Z</DateUtc></StartTime><FrequencyChanges><FrequencyChange><Frequency dt:dt=""r8"">10000000</Frequency><Timestamp dt:dt=""r8"">3130044802267</Timestamp><Current dt:dt=""r8"">0</Current><DateUtc dt:dt=""string"">2024-10-01T12:51:35Z</DateUtc></FrequencyChange></FrequencyChanges></Clock>\n",3.0.3.43,3.0.3.60,3.0.3.60,Full,1.0.0.8,Keyboard,Keyboard
discount5,,List8,,,,,,,,,,,,,,,,,,800,15 years,5475,,,,,,,,,,,,,,,,,,,,,,,,,,,,,,,,,,,,3,2,1,DelayDiscountingTitrated,10-01-2024,08:51:35,,2072,1,16,DelayDiscountingTitrated-2072-1,-983366129,1,75.006,"<?xml version=""1.0""?>\n<Clock xmlns:dt=""urn:schemas-microsoft-com:datatypes""><Description dt:dt=""string"">E-Prime Primary Realtime Clock</Description><StartTime><Timestamp dt:dt=""int"">0</Timestamp><DateUtc dt:dt=""string"">2024-10-01T12:51:35Z</DateUtc></StartTime><FrequencyChanges><FrequencyChange><Frequency dt:dt=""r8"">10000000</Frequency><Timestamp dt:dt=""r8"">3130044802267</Timestamp><Current dt:dt=""r8"">0</Current><DateUtc dt:dt=""string"">2024-10-01T12:51:35Z</DateUtc></FrequencyChange></FrequencyChanges></Clock>\n",3.0.3.43,3.0.3.60,3.0.3.60,Full,1.0.0.8,Keyboard,Keyboard
fifteenyearproc,,List1,,,,,,,,,,,,,,,,,,,,,,,,6,1,6,6,Keyboard,,,,,,,,,,,,,,,,,,,,,,,,,,,,,,,DelayDiscountingTitrated,10-01-2024,08:51:35,,2072,1,16,DelayDiscountingTitrated-2072-1,-983366129,1,75.006,"<?xml version=""1.0""?>\n<Clock xmlns:dt=""urn:schemas-microsoft-com:datatypes""><Description dt:dt=""string"">E-Prime Primary Realtime Clock</Description><StartTime><Timestamp dt:dt=""int"">0</Timestamp><DateUtc dt:dt=""string"">2024-10-01T12:51:35Z</DateUtc></StartTime><FrequencyChanges><FrequencyChange><Frequency dt:dt=""r8"">10000000</Frequency><Timestamp dt:dt=""r8"">3130044802267</Timestamp><Current dt:dt=""r8"">0</Current><DateUtc dt:dt=""string"">2024-10-01T12:51:35Z</DateUtc></FrequencyChange></FrequencyChanges></Clock>\n",3.0.3.43,3.0.3.60,3.0.3.60,Full,1.0.0.8,Keyboard,Keyboard
,,,,,,,,,,,,,,,,,,,,,,,,,,,,,,,,,,,,,,,,,,,,,,,,,,,,,,,,,,,,,DelayDiscountingTitrated,10-01-2024,08:51:35,,2072,1,16,DelayDiscountingTitrated-2072-1,-983366129,1,75.006,"<?xml version=""1.0""?>\n<Clock xmlns:dt=""urn:schemas-microsoft-com:datatypes""><Description dt:dt=""string"">E-Prime Primary Realtime Clock</Description><StartTime><Timestamp dt:dt=""int"">0</Timestamp><DateUtc dt:dt=""string"">2024-10-01T12:51:35Z</DateUtc></StartTime><FrequencyChanges><FrequencyChange><Frequency dt:dt=""r8"">10000000</Frequency><Timestamp dt:dt=""r8"">3130044802267</Timestamp><Current dt:dt=""r8"">0</Current><DateUtc dt:dt=""string"">2024-10-01T12:51:35Z</DateUtc></FrequencyChange></FrequencyChanges></Clock>\n",3.0.3.43,3.0.3.60,3.0.3.60,Full,1.0.0.8,Keyboard,Keyboard
